t,acc_x,acc_y,acc_z,gyro_x,gyro_y,gyro_z,lat_true,lon_true,alt_true,temperature,gradient_xx,gradient_yy,gradient_zz,gradient_xy,gradient_xz,gradient_yz,anomaly_mgal
0.0,-0.0044274142470141645,0.003660989527968201,-9.809794301961013,0.00035058216871821404,-9.49482101198643e-05,-0.0007186453211330819,47.45,8.55,432.0,24.0557340663343,1.828940825314938,-0.3909284008487568,-4.464980054561515,-0.7757445441433418,0.1039936709862604,1.080303359615719,-12.168796425642597
0.01,572.6936935964325,0.009745607889745628,-9.81622737000291,-0.00012089788183050446,-0.001424766110145416,0.0014007603478239262,47.450000515039044,8.5500000000133,432.0,25.041653541629913,2.9391585886800775,-1.0296352691230628,-4.624921674274033,-0.5697294744333496,-0.397330585911929,0.10648531335624453,-11.631982611855602
0.02,-71.77683048468842,0.004199476998487585,-9.801098445699012,-0.0016252387937522362,8.311819389222344e-05,-0.0001933158455761668,47.450000965522406,8.550000000039898,432.0,24.660699115138115,3.768746700484028,-1.5202174210068888,-2.655165605360176,0.4346735792061027,-0.11299195828286479,-0.07420838576540822,-12.554902987858986
0.03,20.95174733010188,-0.002187180286572544,-9.815729958306463,-0.0015043725710665408,0.0011338309580134287,-0.0005238114954675782,47.45000143484465,8.550000000079795,432.0,24.285618727923033,2.3418557632582413,-1.5798060603595683,-4.699275261449915,0.2179629027545459,0.9711032372477877,0.6000879891761242,-12.28577191734432
0.04,-89.71871837007811,-0.0001981690462368301,-9.791546469047814,-0.00042614858266762086,-7.042613425154259e-05,0.0015551274114951172,47.450001823484925,8.550000000132991,432.0,25.473052183807408,3.675907355977276,-1.345369485098595,-4.536578225383518,-0.044064919930922736,0.2049430372251942,-0.2415592753745014,-12.067459087178152
0.05,124.22249953330521,0.018041882193707677,-9.806327315633823,0.0004253900375935439,-0.001045217618349449,0.00010379949527708032,47.450002323842554,8.550000000199486,432.0,25.605530709715296,3.0783283252586577,-1.2510624038206581,-1.9303604441164746,0.9388399981504548,-0.1405810414638342,-0.38160577271945795,-12.594611415524785
0.06,-24.61626070010691,0.018027238363019126,-9.814760698158574,-0.0001642221034900201,3.4611995631762805e-06,-0.0001945920105291536,47.45000280206818,8.55000000027928,432.0,24.35457484686672,2.4369890966345995,-1.6498920755468407,-3.537854615662933,-0.1266403203246487,0.33398506315519405,0.2648527023834287,-12.601464718645857
0.07,-1.2332864128842604,0.016379421105442847,-9.814150039788064,0.0002970465507570861,-7.135515135139518e-06,0.0003428856254797783,47.45000327917456,8.550000000372371,432.0,25.8935052936965,2.9274335169296517,-0.542255257023701,-4.775772897286176,0.07433946150802648,-0.07687609004293477,0.3598045918424336,-12.763317391982959
0.08,-72.1719335446014,0.003503839491373074,-9.792217137055001,0.0010976359378994127,-0.0009909309429218935,-9.952944022661966e-05,47.45000369138019,8.550000000478763,432.0,25.68357389007509,6.213473571625158,-0.8460310352357577,-2.075752707266586,0.8466375766815664,-0.12466825127417477,-0.2660546522004967,-12.55285233928708
0.09,32.13062563798185,0.02491188840550006,-9.809252006725877,0.001612088679463867,0.0007516558319373759,0.0007760180761583901,47.45000413248536,8.55000000059845,432.0,25.298744030410305,1.1444633954265657,-2.3800332693349877,-4.072924447332645,-0.20581430010502208,0.22005636716936738,-0.32503737997801935,-11.651389497058759
0.1,111.04414316481947,0.007557522131379651,-9.812655332229959,-0.0004522003968413895,-0.001391508066226905,-0.0004629077571445503,47.45000467345705,8.550000000731439,432.0,24.81031272373057,3.74016207917576,-0.6629472405013631,-3.227185829514175,0.3190967548585805,1.017160117630319,0.0019547001158964628,-12.220738783007382
0.11,-70.51211669081049,0.0238016505292591,-9.806121054190891,-0.0004037214210209711,-0.0006611786906294134,0.0009312807628922317,47.45000515101458,8.550000000877723,432.0,24.950247141429735,2.3114902438072527,-2.1746929646317184,-4.893468558659766,-0.1339333699146378,0.69882805036294,0.20728633717168918,-12.78140132007179
0.12,-144.8597217170059,0.018673170995324027,-9.822970462703173,-0.00034108898851341806,-0.0015700359792040943,0.0003738637754687782,47.45000549829773,8.550000001037308,432.0,25.13211202412009,3.5774675348882927,-2.0296357141167216,-2.6749583766758054,-0.5035028288483423,0.29282951756086556,0.9230003523786121,-12.47905009720762
0.13,57.09665684922979,-0.0047729928509687766,-9.807231643554186,-0.0007911551234652774,-0.0009952956468829227,-0.0006525325984022047,47.450005896923855,8.55000000121019,432.0,25.41560553727143,2.5975009053680433,-0.2989953434491128,-2.938042958538072,-0.671264219916313,0.8086861248722709,-0.4174616516681675,-13.20442327723802
0.14,39.249051272844866,0.01249307076805976,-9.814017953543381,0.0005814512613978334,-0.0015865032256439026,-0.0010605496269397827,47.45000633085712,8.550000001396372,432.0,24.638186749846557,5.745708101336426,-1.8678963898086869,-3.4098542523596143,-0.32273684630269606,0.48379415039018964,1.2579307397418342,-13.350754864685973
0.15,35.76266871629462,0.016452081497901224,-9.798436042970668,-0.0006270289366327044,0.0008593013219900117,0.0002124356751398064,47.45000679696302,8.55000000159585,432.0,25.02854795887524,3.642267596953131,-2.637891908181865,-3.4114905841186802,-0.06015806227454387,0.3868814450239989,0.7765176975473165,-12.285924305304583
0.16,44.44734179098344,0.0003400649636006031,-9.815271626908855,0.00030317497460022325,-0.001157765410586543,-0.0010763673017185863,47.45000730303217,8.550000001808623,432.0,24.68821670345671,3.818095539144487,0.15396887157667494,-6.012314364592436,0.23498481173595745,-0.26004778756367547,0.6963932392222617,-12.890806633440711
0.17,-133.78847589191997,0.005262024849723446,-9.816312388577012,0.0015009282057657598,-0.000212300562414936,-0.0004283577658586839,47.45000768877456,8.550000002034695,432.0,24.370299898169026,2.715163235759972,-0.7149321343238109,-3.6880787588901796,0.488421931485702,0.3429813412385728,0.5032285295147043,-12.858779555109278
0.18,106.33396466674951,0.007674582477680641,-9.821745720866739,-0.0006205360545841105,-0.001127445097629763,0.0011307980824498737,47.45000817013708,8.550000002274064,432.0,24.21282173030607,3.4339233578917643,-1.2190018111771472,-2.757704667865763,0.5205293833147054,0.42610660141323675,0.17129153106729783,-12.83044956598528
0.19,-103.12258735782036,0.005182151135981487,-9.805210660580784,-0.0006779917016680357,-0.0005931812786067647,-0.00018839907254318387,47.45000855875804,8.550000002526728,432.0,24.778969055100674,2.6640683559933827,-1.9945888589335379,-2.2913856763100178,0.6192984072257538,0.3498420788466733,0.3436054391029987,-12.133588551518331
0.2,32.79745639028916,0.0028664521666448093,-9.818997207767316,-0.0004954032701542627,-0.0010308849382238174,8.575827126483063e-05,47.45000897687134,8.550000002792691,432.0,25.017073984316873,3.5424801143398277,-1.0176238615220248,-3.5738708335808202,0.7121384326808209,0.13846505272508725,0.62008590908719,-12.161527185478278
0.21,96.57399054906656,0.002725012726769843,-9.80505570007609,-0.0008182191045148317,0.00017834090940503406,4.773703049251984e-05,47.45000948183317,8.550000003071949,432.0,25.274625121771297,4.072610439379469,-0.2754660987088853,-5.714032091648762,0.11952856234592399,-0.17657347741290097,-0.2590659953260607,-12.439658268031762
0.22,-5.825942205292607,0.00567786486994845,-9.816197405772284,0.00019876109794680853,0.00010966032710750256,0.0008005996848710222,47.45000998155947,8.550000003364502,432.0,25.16705451842222,3.955784646057446,-2.901961565627184,-1.3019408358854916,-0.06896410638570655,-0.9249972663377568,0.19496224655065297,-12.031168470873727
0.23,-78.07506007187283,0.004351613236012347,-9.821433842750729,-0.000292091951544797,0.0012233510384634984,0.0007072337515647965,47.450010411082246,8.550000003670354,432.0,24.50473215768981,5.469329243162667,-2.918883186317835,-3.1299193632984004,-0.20594761097546113,0.40597880398492553,0.20564249570330523,-12.032772776070004
0.24,-33.0235156044611,0.004387579307364454,-9.790066195263776,0.00047617189294503693,0.0005924412860368388,-0.0020164720663411145,47.45001081089612,8.550000003989497,432.0,25.08891922385137,3.8921965431838115,-0.9956459885639221,-2.987116415262477,-0.07999975392553074,0.3526705242694454,0.7258690983449763,-12.639139084225855
0.25,-44.863368386317255,0.015001690210936466,-9.787880064353928,-0.0005065499204536822,-1.4397948165680386e-05,-0.0006468515198021239,47.45001117037796,8.550000004321937,432.0,24.67564589095809,4.371582973277315,-2.3976248984197417,-4.334812440970008,-0.35115939361703796,0.24365935819016873,0.6349956853176779,-12.292731441038919
0.26,105.6288178376943,3.7480414496195505e-05,-9.802102988369406,0.0011851221371987155,0.0011842685967443935,-0.0007341210119004216,47.45001162483468,8.550000004667671,432.0,23.865191688121488,2.0041236701356775,-0.048125796770063456,-4.36906116685879,0.02430137925116721,-0.7695779029234942,-0.41794031143388877,-12.729625930939973
0.27,28.731338207388628,-0.011573932148453732,-9.82584247119827,-0.0011469362466938835,-0.0016647528515653187,6.41196780480094e-05,47.450012105120265,8.550000005026702,432.0,25.345540514371525,1.9124358969065798,-1.730553972625468,-3.822726185196876,0.58526393094355,1.0064295119396136,0.14686670218419962,-11.429405385835985
0.28,-100.94188855145494,0.013873031332103974,-9.817600197610043,-0.0017648693498918187,8.236143027617261e-05,-0.0009251663579278082,47.450012494637015,8.550000005399024,432.0,24.930869838311903,4.3781331938335954,-1.5818174059911516,-4.480119359334226,-0.3088177428023462,-0.7561441333259615,-0.8825209760768348,-12.570184299536583
0.29,111.66707809604912,-0.0024361974928113553,-9.803503705780708,-0.0008967569060934159,-0.001212611368411002,0.00016764385634354044,47.45001298458724,8.550000005784641,432.0,25.20264018474155,2.9648509589035874,-2.7465039059284013,-4.880760530309396,-0.17910136503130528,-0.07426498376577227,-0.16591762120465092,-12.766298595094895
0.3,-9.619636137117261,0.01938947944240707,-9.810129540029749,-0.00012629071703863906,-0.0003739512962395301,0.0015379134105915704,47.450013465880765,8.55000000618355,432.0,24.689130255231003,2.2384203516793226,-1.2432171836085495,-2.4122387717576554,-0.12213575338183835,0.20128653240497774,0.1340727854373244,-12.457644685390326
0.31,-55.34073478231175,0.008396475768578887,-9.811513864390939,-0.000966029065369078,-0.000986200896809431,-0.00010120000290245937,47.45001389739875,8.550000006595754,432.0,24.408746541351707,2.9959010655681917,-1.7280275448297642,-3.1552207726489914,-0.3125153167141622,-0.3332784973339244,0.3088354236268933,-12.528205686055587
0.32,17.471108149007694,0.010201570028143184,-9.799687872690782,0.0010195178120530064,5.8325423206273284e-05,-0.0004583248079225757,47.45001434463502,8.550000007021248,432.0,24.294756438362363,3.2078997231312907,-2.1918713578481714,-2.0318136403369875,0.6193721219605188,-0.8451590899111858,-0.39328964019393853,-12.527583612500994
0.33,18.002351524486347,0.012250539433898951,-9.803595878931185,0.001057680946216667,-0.0006386098857545523,0.0006014057094785556,47.45001480805149,8.550000007460035,432.0,24.903851215143305,3.2293840430423,-0.30573266702847324,-4.3975576279686095,0.8176502956319971,-0.011274172105335286,0.061303619311666196,-12.453165506301628
0.34,56.63012294031652,0.005364610421979229,-9.815657673450744,0.00018704267540386115,-0.0005514450963372427,0.0002631435192168085,47.450015322393156,8.550000007912113,432.0,24.389130059619998,3.5927657581002346,-4.147472326213575,-3.3374876258393935,-0.04305274088946759,0.13752498251419304,0.24396677039070275,-12.083572667548413
0.35000000000000003,-17.905387072582275,-0.005283167740798534,-9.802223646327354,0.0006010781739584071,4.305783307362848e-05,0.001997911136670334,47.450015820627705,8.55000000837748,432.0,24.70145338359794,3.3531036364662206,-3.2217815860933268,-2.8777753261286563,0.08878389250185396,-0.035042851509492885,0.5014179239738107,-12.794516054162898
0.36,-14.467878926715155,-0.004224125641082219,-9.806751314900247,0.0001343969933417135,-7.014501069743816e-05,-0.0006276676387586107,47.45001630584962,8.550000008856141,432.0,23.638537196937808,2.54715161076829,-0.8715677723713399,-2.1798942204764313,0.03916210629929169,-1.1235255981614616,0.9836632827092682,-12.850798247079855
0.37,-10.14427495099823,0.02255499921635993,-9.798749726791636,0.00044547934197213906,0.001606809768605365,-0.000643935928241654,47.45001678194781,8.550000009348095,432.0,25.5289588881667,2.6295706830533883,-1.899128063111614,-2.4931029439965546,-0.09894571179362197,-0.5341246541091086,0.38959571453977404,-13.383476816948027
0.38,4.242753921167437,0.01447392093568604,-9.826913024908892,-5.980896818640195e-05,-0.0004546146478247709,0.0008492927907915742,47.45001726184352,8.550000009853335,432.0,25.345905976750117,4.80001378377181,-1.2326491371109958,-3.330283139959411,0.2789614143084753,0.8125746840922361,0.5755222961212169,-12.413662808659295
0.39,-15.961125786561038,0.020835643198689482,-9.803732697660584,0.0005591529271965292,-0.0003822184085597574,0.00046969965100364207,47.450017727380114,8.550000010371862,432.0,25.373424442903683,3.627676842571868,-0.9179566137412513,-3.5044579846620603,0.04312847805314683,0.49316002825616123,-0.4536922113405854,-13.060130155044053
0.4,-59.598297248457044,-0.014797326846489179,-9.797344139802334,0.0005056235236381134,0.0012077968277360012,-8.59257126901302e-05,47.45001813932592,8.55000001090368,432.0,24.75191372485013,2.8048993238176556,-3.1750324189005417,-2.709990503504173,-0.9251404747561024,-0.0034943531720294536,0.44696082109081614,-12.735260341864123
0.41000000000000003,88.1238865766508,0.0141075618416311,-9.81548179187793,0.0012421733720548176,-0.0003693556160811372,-0.0017764496998276796,47.45001863052107,8.550000011448786,432.0,24.821829768930403,3.2639767424956023,-0.9483422330560205,-2.515783221838133,-0.5066856790023471,0.5971573426183283,0.7931083043891526,-12.877272639859942
0.42,5.745313560921755,0.014456969764905903,-9.80340652934878,-0.0004755189698340631,0.0006196929283515349,0.0003194226581743024,47.450019126891675,8.55000001200718,432.0,23.943967392949876,4.450408976174755,-0.7480240739406588,-2.060265230877433,-0.10804020161735076,0.0352147715438709,0.3210573596547305,-12.075733592436842
0.43,-60.28154124618616,-0.007590067112484054,-9.813576789142404,-1.8880298193396305e-05,-0.002144328994428664,-0.0001678678649251753,47.45001956905923,8.550000012578861,432.0,25.388395810800436,1.003918080520572,-1.126584169534387,-2.5133434789667284,-0.7878630332209087,0.0786518012121334,0.6884590114706186,-12.729835158057254
0.44,3.014566647510235,-0.009488558029512983,-9.791346781877905,-0.0007132382756359056,0.000671919712989155,-0.0006120273193588813,47.45002001392374,8.550000013163826,432.0,24.571255949414724,4.81165075079727,-2.050416035732797,-5.3210440282423415,0.10400989262636658,-0.38053949232922435,-0.3380003171051916,-12.029309718250735
0.45,-19.061725526321503,0.012987940160791071,-9.799517239205016,7.295362848444449e-05,9.79083273787084e-05,-0.00022276883100693935,47.45002044163337,8.55000001376208,432.0,24.717571128000206,3.908530894908822,-1.2649196849453785,-3.3527331196534353,0.4964709988968581,0.6864149574359636,0.3550372820236811,-12.823407960021374
0.46,-1.9464084164183193,-0.0005593822535114833,-9.813891298665819,-0.0017523744736814984,0.0009572085166498399,-0.0014331799590474132,47.45002086757315,8.550000014373618,432.0,25.039157574099676,4.661729900396752,0.03288264687951692,-3.361988541922433,-0.1674994760126712,0.5022081990071722,0.053283608588071546,-12.628526779505583
0.47000000000000003,-2.2118651014772563,0.02810762548835905,-9.799970062235875,0.0014013875785839397,6.7319580123975e-05,-0.0005007364866583039,47.45002129153362,8.55000001499844,432.0,23.991823216620425,3.206872644563824,-0.2820366978715585,-4.1708462005050615,0.11993566286395985,-0.4355144978895617,-0.11133198364933197,-12.000839621093188
0.48,-8.523165017971744,0.009722199369801522,-9.814242613792853,-0.00037530174062991886,0.0014384100730350355,-0.0007262319855289191,47.450021707845494,8.550000015636547,432.0,25.11181673092733,3.283724517462988,-1.3269331284267623,-3.1169104662479707,0.9191497947885678,-0.6903391028546626,-0.0629288448266013,-11.87871320923206
0.49,50.10653180512639,0.007836893266046458,-9.818653435041956,0.0009998270055024032,-0.0024709992785382487,0.0007747880983061522,47.45002216921744,8.550000016287937,432.0,23.856422901354257,3.631380747663136,-2.0263624963961173,-2.139951535197124,-0.2009646874242508,0.23508668881813907,0.18042021123960095,-12.257544351002977
0.5,50.96711606877083,-0.00704234636563794,-9.79961839547255,-0.0009416020175576121,-0.0011951678204685596,0.0006984260773856522,47.45002267643668,8.55000001695261,432.0,25.630960894718513,2.7151199486144857,-1.6326092821082412,-3.531135508987682,0.8374086661654256,0.05736710218684334,0.5052142567563895,-12.455353407130076
0.51,30.125935605418725,0.0005522497296268514,-9.807125381902596,0.00037270434211166903,0.001515104832043221,-0.00022256960222044502,47.45002321075763,8.550000017630564,432.0,25.3423240740701,4.257529844242147,-2.1474978129675604,-3.148360651007457,0.045287601216821086,0.19655173031665385,-0.4159366667893255,-12.934644924414275
0.52,-186.72266377311368,0.004734560539851466,-9.815152541457762,0.00028927448166395434,0.0005220618029609753,0.0008131895341760646,47.45002357715193,8.5500000183218,432.0,25.08407464067153,5.4520406236723264,-2.170505484159004,-4.5478484525858764,0.5918261210029163,-0.6301631330807906,0.6578995148899316,-13.405059784926904
0.53,204.4409916359451,0.0187990159936856,-9.80304356920078,0.0012169808903994353,0.001589256134399644,0.0012031564739904575,47.45002412740249,8.550000019026317,432.0,24.475324904892418,5.111878054895312,-0.5065941278965518,-4.044094777884344,0.5243080724663578,-0.1115943250369675,-0.26251936462385106,-12.408424710146113
0.54,-76.99758944445328,0.010104785468865344,-9.813321475225548,0.00015264458809371553,-0.0012760049681022848,0.0002925976726779431,47.45002460840511,8.550000019744115,432.0,26.09755720394835,2.472375555508587,-0.8792343835310507,-2.5416088669250665,-0.17654097534423693,0.10211527543759598,-0.507288446713249,-13.577723031373674
0.55,19.615793875258646,0.023967421426397274,-9.797729614721737,0.00019102234273061646,0.0002260247237134431,0.0019063333605725912,47.450025107045846,8.55000002047519,432.0,24.664653254118086,2.5190457606101293,-2.891930130937512,-5.482027370173412,-0.05987856154049953,0.21013398104273145,0.6025198224767855,-12.454908188481166
0.56,-16.07495900957359,0.009785416094684656,-9.806112361787095,0.001624914337019442,0.0004215774311912787,-0.0001382945086840831,47.45002559122416,8.550000021219546,432.0,25.312293179119315,3.3274535186694987,-1.6806813356075678,-2.890302236844213,0.26618313183712067,-0.35600402619157034,0.4902574089525251,-11.809021427429041
0.5700000000000001,-9.144114674419306,0.02898566798690457,-9.794023475723613,0.0026988231244253758,-0.0002805289591956254,0.00027255304356718846,47.45002606716488,8.550000021977178,432.0,24.824401578525,3.8367096784263937,-2.5383467841789047,-4.281022533406441,-0.3531158469864687,0.601442802058767,-0.2799675645480575,-12.706904573022708
0.58,-102.73618065267172,0.01891908854989059,-9.79113024467757,0.001631086706503964,0.00033189301091946833,-0.00047094873173534815,47.450026450711164,8.550000022748087,432.0,26.35937982488814,4.365581312724389,-0.2024844015800813,-4.8449170369405685,0.19473332978936797,-0.6401273491119179,-0.7170589974954843,-12.008963202613483
0.59,92.97318011416496,0.025969944014857242,-9.807780949846855,0.0002930004831366922,-0.0002165099731921366,-0.00031320263684071303,47.4500269178565,8.550000023532272,432.0,24.71982634896371,3.4740422442894263,-1.5634645316653515,-2.1672732105003765,0.2374071888953363,0.24092642681434356,-0.06147682693417489,-12.626635987424933
0.6,-24.096760946196547,-0.0016586505536726921,-9.80591132866178,0.0006018398388346248,0.0012045132046549722,0.0005585626574989414,47.45002736335616,8.550000024329732,432.0,24.63709011773705,4.387230925007105,-1.4956293569148644,-4.32854276039282,0.8156787258393323,0.09561000221226328,0.024907214455621024,-12.215634985346973
0.61,-16.96589001816895,0.014049609790126105,-9.808550396059168,-0.0006027206151161288,-0.00019695056317063907,0.000638398026302694,47.450027793606594,8.550000025140468,432.0,24.630821084622767,3.092947138965025,-1.6770548050289835,-2.8473287411262462,0.6897885485518551,-0.4429950580812936,0.9373028667557777,-13.190677860782626
0.62,-42.453908629864785,0.01685761944685858,-9.811320444265975,-0.0006796484790810536,-0.0012500977492665682,-0.0004644763801112473,47.45002818568881,8.550000025964476,432.0,25.840719727972015,2.9075544739482417,-0.8602431848693765,-3.6090985501701045,0.18150570634312907,0.30429626810611393,-0.05315150873449759,-12.859532556041746
0.63,-60.398229650073255,0.011597823287574874,-9.8059557108781,0.0006912666505482711,9.55893847306758e-06,0.0014378053804357186,47.45002852344559,8.550000026801758,432.0,25.346843164805446,5.192559651655364,-1.5288421828233334,-4.508268646593526,0.17129682051587042,0.4530410743809869,0.06797223127628992,-12.057897472922122
0.64,166.45017076099208,0.016726047161345743,-9.811306588058333,0.00021299261734022078,9.412506518135457e-05,0.0009175509318285764,47.450029010887675,8.550000027652315,432.0,24.866913657492653,2.900641181919285,-1.3477449811083795,-3.35733500862901,0.1770157192639577,-0.6179192335694262,0.2872834020572764,-12.971938043081565
0.65,36.079255918386,0.007808006617209744,-9.79418945705126,0.0006011509348765221,-0.0002910972864048274,0.0004741339913173551,47.45002953077278,8.550000028516141,432.0,24.791039985919497,4.036821207332494,-2.8648446488943358,-4.993564216810603,0.9134993395165367,0.14706949573664604,-0.057513013251380835,-11.866805913365626
0.66,-89.55048673989558,0.016698498407516683,-9.813425457785073,-0.001791111572652695,0.0012437655515992513,-5.639426756268047e-07,47.45002997014357,8.550000029393237,432.0,25.445748557526194,1.6259162428829457,-0.18558282110888902,-3.028873300475764,-0.1582582576755834,0.3199551649771055,-0.06112100203050436,-12.218893188874032
0.67,44.32875099004435,0.020214240504900102,-9.799560031062224,4.91991613420064e-06,-0.0008365135126648704,0.0006379845651375808,47.45003044937675,8.550000030283602,432.0,25.905056486820573,1.4103145869900837,-1.080801320500683,-5.26399232519746,0.36271245596024426,0.29217160254608887,0.8134152821385388,-12.46505940771781
0.68,23.298224133348658,0.02289011632502618,-9.802410951791718,0.0012612984256809205,0.0014247301383378311,-0.0009347434252811033,47.45003094955756,8.550000031187238,432.0,24.959718781274926,5.337582648664856,-1.237715103233301,-3.431647430160887,0.04824717214479967,-0.29359488016458973,-0.4786101313310514,-11.786128369603992
0.6900000000000001,19.26047527312567,-0.012763529090867386,-9.822203304481432,-0.0005380055534272784,2.7138707615426435e-05,-0.00039157549369196976,47.450031467058025,8.55000003210414,432.0,24.739050244444122,3.272193886305304,-0.5112587226945572,-5.1422727396272485,-0.24065855445813542,0.2546337769399206,-0.2998170450752611,-12.147092781665183
0.7000000000000001,-150.68230419472786,-0.004292283996448588,-9.810529781326972,-0.0006308066555249736,0.0015343579964258276,-0.0002385475153332175,47.450031849062356,8.55000003303431,432.0,24.624222618090876,2.6280140686892226,-3.887500247639446,-4.710228201393783,0.19440719085699307,0.4308700148976774,-0.2636744491827674,-12.629654461132962
0.71,72.8959755132275,0.0086840964335628,-9.79016824864159,0.0006888736473824495,0.000633776531781235,-0.00031483121410859707,47.45003229662517,8.550000033977746,432.0,24.35082588167959,2.458119915291357,-0.5038176963355563,-3.785525260636434,0.334410288457917,0.1988443242398428,-0.036225168983531536,-12.190145721035815
0.72,-30.617736300835823,0.002018293431234606,-9.802906077617557,-5.078112933659624e-05,-0.0009167908583227566,-0.0002608387861873807,47.45003271664243,8.550000034934445,432.0,24.14595591198157,3.1411077099136535,-0.44031862340717454,-2.4992493619236775,1.0637450274603277,-0.41538509833410386,0.1911972110451836,-11.905961676188323
0.73,21.94976528818891,0.014498418394511386,-9.805484970240153,-0.002152234486074117,0.0001493249979881838,0.0007097003100775123,47.45003315641255,8.55000003590441,432.0,24.801328465859722,3.1910832237212587,-0.14702562041050027,-3.5363301740268054,-0.39010628753951937,0.7330370184896401,0.2609124027017586,-11.903202179858233
0.74,13.336643859584337,0.005898792971966887,-9.811138476660656,-0.0004365980030053438,0.00043553396674032765,0.0005573195623986171,47.45003360818226,8.550000036887637,432.0,24.623167062704944,2.4478321806752246,-1.5637122549122264,-3.5767072775235604,-0.09796434031353132,-0.027096633672072795,-0.12190652923599599,-11.689019703782659
0.75,71.40848727412552,0.017677297424584563,-9.795431315982427,0.00033902624180147384,-0.00038279481263497135,2.468926190454852e-06,47.450034124172824,8.550000037884127,432.0,25.56398355244859,1.5443569615872859,-2.1954360902401477,-3.091183495307797,0.3259114830357914,-0.16229217661505602,0.20599487387294865,-12.700262542010782
0.76,-95.23472317610175,0.015131426373051742,-9.810669099550392,2.0859121128363034e-05,-0.0006030778245068226,0.00023427584605818314,47.45003455450787,8.550000038893879,432.0,25.196413374733485,4.403657720294365,-0.9126324935010995,-2.894068180218948,0.019084440943848396,0.09548931948321816,0.16526983678394158,-12.112518840696712
0.77,5.2517461733289865,0.025841658153338373,-9.813484350645775,0.0009820169699231941,-0.0007710607066321813,-0.0012392402872255502,47.45003498956276,8.55000003991689,432.0,25.165294090732516,4.536776047316,0.3862207753082456,-3.1274434321298545,0.23800198863186026,-0.13448354105329036,-0.05008651301391731,-12.761143175108487
0.78,25.714822558187045,0.007721435024019311,-9.802079955041384,0.0005695396371616392,-0.00027032024440113074,0.00042670094006944814,47.45003544773621,8.550000040953158,432.0,24.927320417266138,2.8359244343253964,-0.871743919610829,-2.288636372935294,-0.3645468566275929,-0.21563921349479692,0.2663409111742488,-12.249821135215294
0.79,-49.582022260909426,0.010018459518211533,-9.800403648537984,-0.00020115941457669493,0.0006092701270051302,0.001687987400834743,47.45003586132511,8.550000042002686,432.0,25.242108160853128,4.288359255891669,-1.481000902882352,-3.5620005076217307,-0.15531611279422344,0.41189030791764547,0.9066012118038062,-12.658625631661712
0.8,107.40144715047518,-0.004449827081527554,-9.795828745306808,-0.00022260351733707298,-0.001615554519362588,0.00025229609968120795,47.45003637149978,8.550000043065472,432.0,24.690724085688064,4.294185578894455,-0.541405041426464,-3.1679162184615226,-0.19942144371239032,-0.8620389975851447,0.33229635251445677,-12.310925080537826
0.81,-15.144849155711931,0.02106075227425961,-9.815123963780445,0.00011915679267843341,-0.0016769976264103422,-0.0005845235451672885,47.45003686804805,8.550000044141512,432.0,25.107975459142654,4.185388677409246,-2.0870464557858877,-4.556394650942006,0.5706726871124215,0.8306126147085177,-0.3159229482844539,-12.641109485507002
0.8200000000000001,-59.43153428234688,-0.005095580342362856,-9.804345973229061,-7.117107690983035e-05,0.0005334427353306441,0.00017464722347617444,47.45003731114597,8.550000045230808,432.0,25.573636488169043,3.6756527234172562,-2.3494361596933615,-2.428853700890257,0.3273823364280747,-0.9620262363909112,0.09794043879346566,-11.986384529138345
0.8300000000000001,-52.259056456695006,0.023423966406781974,-9.828262057301677,-0.0007721234896591108,-0.0002946643016616403,0.0005233173411176038,47.45003770724622,8.550000046333356,432.0,25.59004083409118,3.21914698059953,-3.5167238857589327,-2.7586043625867145,-0.21261769709354403,-0.6553251382236147,-0.4760185373415091,-11.662978850450877
0.84,92.00855600496028,0.00931466407924065,-9.798264179741908,-0.001721437356801445,0.001082367330649069,0.0004370115649294126,47.450038186102816,8.550000047449158,432.0,24.899543992042354,2.3791607546863367,-0.9107104738355907,-2.411791079618296,-0.47066533018573575,0.9896537739035098,-0.6450872558625338,-13.303435263867298
0.85,-86.80429814169518,0.02635323625393905,-9.808406156076556,-0.0006560673699694181,-0.00023303195595811142,-0.0019113920185932173,47.45003858688519,8.550000048578212,432.0,25.659187855123204,5.741917336087143,-0.06946287640907434,-3.5459053786837,-0.20904391312990703,-0.009393838597499734,0.9606996030210615,-12.619336421752948
0.86,-20.183799563543637,0.013487466841271915,-9.812238734603639,0.0006162420682914058,-0.0003470924287361335,0.0022508789853518496,47.450038969528244,8.550000049720516,432.0,24.840874807557444,4.268655340374891,-1.5337731981577671,-4.52062664829547,-0.05760508519067639,0.9372949844062686,0.01299372703785423,-12.263220509609525
0.87,129.23102054393254,0.009113415184592437,-9.810296160844235,0.0007160444567342308,-9.399597826746321e-05,-0.000997077606599394,47.45003946839066,8.55000005087607,432.0,24.962539190968222,3.7445761790661987,-1.402617819188614,-2.4122842386889296,-0.3169227247681916,-0.2937440929131897,0.03786891832286131,-11.975510961601255
0.88,-102.37046363897997,0.00390831167084623,-9.810741097313377,-5.578936583716852e-05,-0.0013223115311676793,0.0005445408876032446,47.45003987518172,8.55000005204487,432.0,25.10035416045953,2.6210082224461075,-2.722603159953961,-3.9818054383475605,0.0981502377265152,-0.2528139505592719,1.0882513053352991,-12.086823304518289
0.89,82.92214745109408,0.007455122089729194,-9.803785050857263,-2.8838402151033188e-05,-0.00017843175049801993,-0.0002632157877207707,47.45004035654741,8.550000053226919,432.0,25.089682111925963,3.3046025061293207,-1.4578750269275533,-2.846571900035579,0.40693473420485615,0.18721037878760435,0.3194462312282198,-13.235094171909166
0.9,-147.16375278481448,-0.004115569696450315,-9.799041716379291,0.0006995527358430403,-0.00020807444133453423,-9.256283203800313e-06,47.45004070555816,8.550000054422213,432.0,24.902661446694015,4.622243035970839,-0.6879347129180228,-3.1503290426490813,-0.324111427396945,0.9358666068062174,-0.5734332566001514,-12.13078500124363
0.91,96.5480193932486,0.0017081914130179666,-9.80619566243484,-0.00028825641380259557,0.0002990981418723625,0.0004621873044604794,47.45004114138896,8.550000055630752,432.0,24.154130659394323,3.4247917710465585,-3.1237240510492006,-2.336697720643685,0.011910567700911326,-0.18381223783620793,-0.5396631435709096,-12.612534658356177
0.92,5.191129813728257,0.009860695611449121,-9.812540745489878,0.000657498140788044,-0.0007973774967829565,0.00028293989965911837,47.45004158188887,8.550000056852534,432.0,25.60688585977373,3.1164386088304723,-1.9814705153232517,-3.018799973675779,-0.48615595935416767,-0.07939106359457934,0.5559493613661863,-12.977439238465667
0.93,-100.66127498998979,0.017683825028329325,-9.801807824975063,5.9604057973493635e-05,0.0003351856493205323,0.00016883745583940745,47.450041931861584,8.550000058087557,432.0,24.44834144907567,5.027287175067898,-1.3602412917382727,-2.6234388449142627,-0.295222386183154,-0.26162985912213055,-0.6411033310264834,-12.303124275694659
0.9400000000000001,102.85873668419057,0.011259052350020483,-9.798673295215524,0.0008032643358137927,0.00030064847500059315,0.0005366301598488273,47.45004237433084,8.550000059335822,432.0,24.959709908784316,4.175020900835052,-2.3018713829890705,-3.8663891615638675,0.01675723986357046,-0.43534907423702934,1.0113338063809456,-11.007124739333744
0.9500000000000001,39.95758446525769,-0.008828004452146713,-9.815249615492581,0.0005777100999250993,-0.00046770538394027894,-0.00040824097191279957,47.450042852724806,8.550000060597329,432.0,25.022793331857258,3.7452081633859433,-1.590068977147457,-2.2670688049747127,-0.3399332612687953,0.5009093696629652,-0.05889708326314033,-11.967741508690454
0.96,-100.0872079403028,0.007565052296963394,-9.799866686038555,-0.0017699838068867503,-0.0003457960927989713,-0.0011812151185080111,47.4500432410998,8.550000061872073,432.0,24.339316653248442,2.291457270812149,-1.1045346812487191,-4.399765738502101,-0.2709080817287627,-0.23410671957762005,0.35383487286904913,-11.556541585925174
0.97,219.7280071808383,0.003936981908179185,-9.804082442694407,0.0005601840854656258,-0.0014486679562458898,0.0008160221295241223,47.45004382707454,8.550000063160052,432.0,25.771458048208473,0.7590483257005975,-0.13668122494473534,-5.258235585046999,-0.11662956256363749,0.17000987512743446,0.4355250398622994,-12.231248390775427
0.98,-206.25629790663479,-0.0034641942121440387,-9.818254266778291,-0.001002544368651297,0.0005498594061576247,0.000446714287252878,47.450044227564746,8.550000064461267,432.0,25.128597269917716,4.02040171662737,-3.099501548303941,-2.2479582023138773,0.7896881985610685,-0.25336785052338984,-0.2942905421364661,-12.064098991601032
0.99,91.13349016956387,0.004845439571138189,-9.806144518530363,-0.0006377081876221969,-0.0015005634712499558,0.0008733865396927162,47.45004471002457,8.550000065775718,432.0,25.186882380458762,3.2283827780608023,-0.3868955141399262,-5.036261822643653,0.6253368589057788,0.2372138935513551,1.3934779416295282,-13.023374507539454
1.0,-29.88919868482518,0.005144135618350416,-9.792525290659686,0.00035579285299235195,0.0009345870709024059,-0.0005009308687141923,47.45004516561621,8.550000067103403,432.0,24.94223468481259,4.448684305095642,-2.2625994213299543,-2.739998364169698,-0.14249698730681082,0.10654116012878082,0.5576169596561046,-12.386989222253023
1.01,-24.64522250500876,0.013438625287864731,-9.8035528659901,0.0003012414798592849,0.00072081746113984,0.00011658875797825567,47.450045599059415,8.55000006844432,432.0,24.802158949163186,3.7668994637939917,-3.776860802067697,-2.0119359585062835,0.3696597763426387,0.0367429512709818,-0.21809104248222472,-12.574562052286703
1.02,42.42686844594933,0.008538105752826982,-9.817792914096362,0.0017277351975019024,0.00034909166929771376,-0.0002761551662056708,47.45004607065877,8.550000069798465,432.0,25.622038779336613,4.233029880919956,-1.3696841834146898,-4.457148409106741,-0.9254111668864594,0.208792630482136,-0.13756565206081822,-12.413828150810795
1.03,-5.733324619404973,0.014624589420259168,-9.787610031196467,9.260988578481418e-05,-0.0005614440658478451,-0.0011672367936399978,47.45004653709726,8.55000007116584,432.0,24.803201024225864,2.6612072742642536,-2.1491989131679,-4.77091223396845,-0.8089648640968984,-0.0045067135487299225,0.2795135560972096,-12.802770389551155
1.04,7.574673293824934,0.018607775993157313,-9.79967081007358,0.0006399735091756465,0.0002146442790056391,0.00020853825403503086,47.45004701035696,8.550000072546444,432.0,25.54101313037696,4.271042064306612,-1.7150399176068474,-2.560118994177418,-0.24235745176923343,0.4727411238886858,0.06465347206582593,-12.68783732322006
1.05,-44.457430860584076,0.01614322407069713,-9.811937143897486,0.001196455067339275,0.0012522415430502225,-0.0004943965595989583,47.45004744364741,8.550000073940275,432.0,25.03963443384344,3.955440235789224,-1.21608110416364,-2.6141706701934555,-0.8567223297875503,-0.4854902887357013,0.6284417591148578,-12.905553032570952
1.06,40.81095315533489,0.011416489746225902,-9.788904432503983,0.0014308917123247351,0.0013708675542063703,-7.035966665607773e-05,47.450047913620914,8.550000075347329,432.0,24.301581895128614,3.7322125271105118,-0.7129909102191877,-3.4825822594047717,-0.3768646179994831,0.6975715138719183,0.05107461030404514,-12.97957861999694
1.07,-21.26364048370032,0.008885588650091336,-9.809785681147119,-0.0004847175652086858,-0.0011371476291685367,0.00020139145887182008,47.4500483644795,8.55000007676761,432.0,24.409197789212218,2.6263842897526053,-1.6653426429796951,-4.256688346116469,0.8824835784385708,-0.36978228549431436,-0.38030112555885853,-12.473587606721388
1.08,17.704664988443433,0.0008883084360952215,-9.793729805245725,0.0008814984995304142,-0.0021674697947503788,-0.0008953710814177052,47.4500488312614,8.55000007820111,432.0,25.31774637512375,3.357294602474334,-1.01103355331857,-3.0380598060916393,0.7484645420629326,1.1397298640035587,-0.8174460228098486,-11.827567728407827
1.09,-66.03122287989662,0.004838565031220493,-9.805089059014366,0.00045283232039843084,-0.0008626534272108357,0.0006504343249157646,47.450049238649505,8.55000007964783,432.0,25.816392444422533,3.195179591157409,-3.128292442896241,-4.686765850480402,-0.5218943439668614,0.09373923221182899,0.4432908097863284,-11.834063800687415
1.1,26.489192029028487,0.010220523360550543,-9.815554711008266,0.000325989799040431,0.0015810952285793922,0.00030220383724557156,47.450049669854316,8.550000081107774,432.0,24.952134745932884,2.2393020327120574,0.07459576298422488,-2.4756633380937227,0.24849147469677327,0.28926867769377024,0.048972551550424986,-12.346522477187149
1.11,7.769310416951028,0.0038282081230953426,-9.80938587387287,0.0008386725265810948,-0.0005557805291437641,-0.00032944565837180877,47.45005010805452,8.550000082580933,432.0,25.300950719415816,3.6712519632045972,-2.4261952118783063,-4.3637604412946605,0.9291031510470129,-0.38016477973692453,0.3840367735123308,-11.739981611703667
1.12,-9.154437366996003,0.0020536933320166387,-9.801553913861866,-0.00047652960673621455,-0.0005184316343901221,3.191699874892478e-05,47.450050538016775,8.550000084067307,432.0,24.81742390141738,3.7394069302339212,-1.5352991312649444,-4.182679931679212,-0.5088512368695899,-0.9194017238983003,0.6302431540665059,-13.288188987358648
1.1300000000000001,-6.114072622807629,-0.0007191051697964645,-9.819787853104584,-0.00016860769135951118,-0.0006908843491793314,0.0006000336607217538,47.450050962481,8.550000085566898,432.0,25.455407194348503,5.829297319486045,-1.7146924776575627,-2.801243480238186,0.7890607903721272,-0.5994650933873641,0.5104685615499978,-12.637881957675758
1.1400000000000001,49.98408351003367,0.005921410894938101,-9.76989346029827,0.00039290551290552006,0.00035773633460755487,-3.950185167248006e-05,47.45005143190422,8.5500000870797,432.0,25.101156976518503,5.610913365603298,-1.6711405526654772,-3.3823255019943477,0.5286708015912753,0.3854064631768941,-0.4863368754527837,-13.0572248973737
1.1500000000000001,0.6897773894825298,0.016678147540107227,-9.804874779676426,0.00030966940945305067,-0.00011457076594770675,0.0005090599977165529,47.45005190194174,8.550000088605717,432.0,25.043570900739542,4.499208401436745,-1.2095406490726268,-4.640343603012996,0.7601165041789929,0.224427876313896,0.2704992102089594,-13.438851791196564
1.16,54.97952290612092,0.006350500265009356,-9.805150977110042,0.000817134451053777,0.0010983688057376888,0.0013971440254721104,47.4500524214142,8.550000090144945,432.0,24.388986712396612,3.748158052279798,-0.9812981589784513,-4.993217315359443,-0.04961954471879479,-0.35893810450440317,0.29903691565181,-13.097290949543348
1.17,-132.42019779155427,0.0135877371016971,-9.794646929790797,0.0010805712498011106,-0.000685688963404393,0.00024073312115002775,47.45005282179795,8.55000009169738,432.0,25.317795936095408,3.2876259292913526,-2.518535044900654,-3.284950066563882,0.7855096491161407,-0.15261215901784628,0.8146135817890136,-13.08855603572412
1.18,-11.203637803469727,0.032066621406142595,-9.817733490114245,-0.0002619394695509841,-0.0009457096710318316,0.0006559426205701888,47.45005321209782,8.550000093263021,432.0,25.33883213321885,2.9050155855889086,-2.448915918912581,-4.631341135547393,-0.3229042572528704,1.0023076460625628,-0.12930588401188894,-11.250133123947483
1.19,86.48401434747115,0.013395748889808105,-9.821800265827722,1.7366303571212394e-05,-0.00040991256492528956,-0.0004929985572039247,47.450053680174776,8.55000009484187,432.0,24.523524534842977,3.7356205633216906,-2.0045564210165976,-3.538445993357995,-0.2474589671728896,0.3990821739273819,0.5408275634332547,-11.834560726662895
1.2,16.544932585756214,-0.0021546412379355746,-9.79761129016969,8.614633542017481e-05,0.0010477482237054596,0.0007747289710540904,47.4500541631316,8.550000096433921,432.0,24.81955895715291,3.659333053606052,-0.777613867240765,-5.344764591081384,-0.02244627851957541,0.5635725205057163,0.4341828061463058,-12.293108675772931
1.21,-43.921871888900206,0.016969408181547883,-9.825048945734233,0.0007992793347678719,-0.0007269707202240931,0.0012632848746816,47.450054606596545,8.550000098039176,432.0,25.68728008800372,4.219392658354248,-1.5998836069109303,-2.8577850043168995,-0.6076310351155532,0.4225154066011346,-0.24696641159070906,-12.596451209238927
1.22,13.934640192028025,0.00048847005355134,-9.816975200100385,-0.0004781794952104413,-0.0007406926708246196,-0.0006407870141038816,47.45005506258764,8.55000009965763,432.0,25.38941903547409,2.498678777998612,-2.8299967899826544,-2.3442310865169436,-0.24107039413146383,-0.5017763008734698,0.5577925477242781,-12.449715357484628
1.23,-58.70840984923407,0.005343146262114133,-9.806582390841733,0.0007511871902052988,-0.0005351453642019073,0.000905433187513868,47.45005546577859,8.550000101289287,432.0,24.936064028169078,3.825877705426646,-0.08217121327911503,-2.1819868328230516,0.30699632142182187,-0.3453565816604564,-0.2569688468265354,-12.156543105239468
1.24,79.57223861361788,0.015874213744888094,-9.815936732841001,-0.0010852020501563775,-0.0006090135661877091,-0.0015432570994624436,47.4500559405261,8.550000102934138,432.0,25.557729477637984,2.5921880310384524,-2.593600461957251,-4.760232643645384,0.2934122785954703,-0.31853218749483814,0.1020303327690826,-12.673291718924855
1.25,-3.5145645785229007,0.0017200066370159535,-9.786845942831171,0.0007554030708483947,0.0008625896337282327,2.899629246402671e-05,47.45005641210591,8.550000104592186,432.0,26.133061581858943,2.460323271222936,-1.0846853177749056,-4.394946552253073,-0.1556434448513844,-0.63236500596171,0.5604769565354003,-12.053707520423258
1.26,-98.75108797300479,0.004787497487545879,-9.809820457106998,-0.0008521322817877741,-4.502569159887898e-05,0.0008722847321990187,47.45005679488696,8.550000106263429,432.0,24.725025774802344,2.556179650111787,-0.6821258604421225,-3.493771289533108,0.050742008625623454,0.0396405959585832,0.38376958909270953,-13.557824267849142
1.27,74.47086241530334,0.009745770551183752,-9.801863253176323,0.0006835101234078131,-6.604709520092965e-06,-0.00045130210714256337,47.45005724462636,8.550000107947866,432.0,24.381812313912057,2.910078674367482,-2.632718520299923,-4.266836564692988,0.1224915208369506,-0.18051008217464126,-0.04674757304226812,-12.08359663331634
1.28,-18.589147608142827,0.009405199490576867,-9.805912940099587,-0.00012753561372282974,0.0011258411185066449,-0.0004003338183009019,47.45005767763743,8.550000109645493,432.0,25.96085040165557,4.455576529159254,-2.0191676104325027,-3.0561487157813567,0.04157996821761907,-0.5198304834627786,0.7328941654065799,-12.511366787494469
1.29,-52.32663180756076,0.017152392169505284,-9.823505420611676,-0.0008135122122507766,-0.001696859205375515,7.91598272732745e-05,47.45005806359704,8.55000011135631,432.0,25.44118569343529,3.2239701590015275,-1.486140569051689,-3.916472635095069,0.1692967456981778,0.10848600234285591,-0.015895117493304523,-11.988446005470209
1.3,69.02047299648757,0.02515193176738588,-9.805880869153372,0.000979852172771413,0.00019025649010487864,-0.0004960907069598621,47.4500585116348,8.550000113080314,432.0,25.891991538974146,3.24753157552298,1.0717270945884803,-4.401052095860599,-0.16550259941398168,0.1020467130254911,-1.0912087282897194,-12.316928726763045
1.31,30.263215164748576,0.008399692618960033,-9.81613676151427,9.728320053343597e-07,-0.0004549971447620353,-0.001461200963712813,47.450058986888116,8.550000114817504,432.0,25.386340781165053,2.4489418650619066,-1.508068737902549,-3.905714699331389,-0.03391395206971673,-0.2006444185343205,0.25535586866248455,-12.585375769833743
1.32,118.41739625822568,0.021729043290819018,-9.800999271163525,-0.0007904243592134019,-0.00045771098145978205,-0.0004900639447671748,47.45005956864482,8.550000116567878,432.0,24.531875259510052,3.3435182525476406,-0.4929286405607346,-1.7379317356115946,-0.10826514927167238,-0.3577956512047741,-0.3756602901288417,-12.66449852620536
1.33,-115.55053661372224,0.020129358470421424,-9.791907243178157,-0.0009765009372653735,-0.0017439441964250074,0.001296220898144125,47.45006004649835,8.550000118331436,432.0,25.095893283684376,3.0456203767601107,-0.06740818692334294,-4.694802741699794,0.2328103732973594,0.11714616465030694,1.1076983498352124,-13.187932482808558
1.34,0.5062519711906006,-0.0020457119287771042,-9.79522726507858,0.0004662760489349899,0.0008548654232623376,-0.0008968764589574489,47.45006052480849,8.550000120108173,432.0,24.648032612873756,2.530565115637254,-0.915335635899831,-3.631030952403014,0.7326820827326719,0.016589636249212142,-0.058342731579996476,-12.027832654766371
1.35,58.051174240729154,0.006994080178130502,-9.809383464494664,0.0014856959830856435,0.00029259159786614025,0.0010449649687278434,47.45006105533856,8.550000121898089,432.0,24.703095880099852,2.5561413727700604,-2.832963117482012,-4.092353100178869,0.5241505305882574,-0.1724009750494273,0.2313876380330227,-12.712045639815067
1.36,-41.354458529869845,0.013571539805137563,-9.798904080320371,0.00031565056774990926,-0.0003388376248662753,0.00046430182346217966,47.4500615486763,8.550000123701182,432.0,25.25798097161348,2.38667143174038,-1.9983247436630394,-4.0161394256182446,-0.2724469579656933,-0.8114209952841183,-0.011752256946022083,-12.515116412530666
1.37,-26.381732084417685,0.029575536696728376,-9.809110122580535,0.00048514699854490263,-0.001099769767237926,0.0007209672672068635,47.45006201829109,8.55000012551745,432.0,24.608069005435894,3.7776216299382392,-0.5670500193475243,-2.1551304983896102,-0.1781387741851664,-0.16171443191665802,1.2238039660329525,-12.128777161195067
1.3800000000000001,-52.72334313492078,0.007023834892662688,-9.813751921290637,0.00039477535799797516,-0.0009336250327329124,0.00010025456974628495,47.450062440483734,8.550000127346893,432.0,24.583636083588463,3.198803797517285,-2.155172397177685,-4.4061350610937415,0.49802297695827535,-0.6043144046694165,0.03170200569148375,-12.77884411744832
1.3900000000000001,52.64945026961043,0.007453052927089244,-9.807229482256664,-0.0002091605891791119,-0.0009853802488628122,0.00043979000977674594,47.450062910032386,8.550000129189508,432.0,24.76587114182939,3.254974034698172,-0.5267012707960358,-2.657205177272516,-0.1691849990252857,0.3891789165651209,-0.5530583131839346,-13.334863051238676
1.4000000000000001,31.491263418725218,0.027505403525268993,-9.799906929940455,-0.0008682601175780046,-7.184274093369651e-05,0.00063758683094385,47.45006340789631,8.55000013104529,432.0,24.982564807144527,4.129338917696538,-0.10419893650289236,-2.2823083823203705,0.3961897870382566,-0.003967300541298874,0.86065024310093,-11.871813097170264
1.41,-47.818968942835376,-0.0064197143939374885,-9.803218686964707,-2.4986335237857288e-06,-0.0014376630501136591,0.002195080020718444,47.45006386273989,8.550000132914242,432.0,24.82539465143321,3.234361541428087,-0.7447447808300371,-3.8151303113879615,0.6066991139948755,-0.1843081678073428,-0.7539210881871126,-12.604198049419011
1.42,67.62496712670301,0.00038615344456214076,-9.814039159367521,0.0010875099624703029,0.00017991981966342284,-0.0012522685540555646,47.45006437841254,8.55000013479636,432.0,25.381312040484,3.119718535205863,-1.0295062366515983,-1.7604437153630668,-0.3670198402895929,0.1663842468729974,-0.21706309086064457,-12.634576757048306
1.43,8.15505471858724,-0.012232765210928054,-9.814862691135925,-0.0003340245530070346,0.0018369783647921632,0.0016027259848109673,47.45006490141727,8.55000013669164,432.0,25.58713769337055,4.00370777875405,-1.38965425916189,-4.617250883195901,0.2825904719355718,-0.0689998165886495,0.5847254657950219,-11.805095609411518
1.44,-87.5191791747586,0.018047683688829898,-9.822411022894354,0.0014378285833663534,-0.0003162128585472839,0.0004734458838923207,47.45006534569797,8.550000138600085,432.0,25.4254716645314,3.657482550101708,-0.8344078538484483,-3.4027927804660445,0.4590606319037328,-0.4623658644194847,-0.19822160200233319,-11.901914176799103
1.45,-22.020640425932594,0.01583632062128875,-9.8129282295155,0.001203979843512907,-0.0017364420141432236,-0.0004761701943795467,47.450065770195096,8.550000140521691,432.0,24.92628246173555,3.093786132883996,-1.3035146771727566,-3.340309665868827,-0.2540828626182996,0.24039687082307143,0.5431289729355286,-12.889913146011164
1.46,-1.9156977792314207,0.01195945644720348,-9.799426782132175,-0.00141452200539188,-0.0012077305971182719,0.0009515831424379871,47.450066192987094,8.550000142456454,432.0,24.512327180871356,3.813881702794471,-2.6548009713541694,-2.1649452530960573,-0.6193096707927053,0.7035638952127545,0.19032505074616066,-12.643854738241272
1.47,110.86217061778247,0.010953312863274478,-9.800075420977938,0.0005609105057806235,0.0007923548021734752,0.0005585262712080735,47.450066715472964,8.550000144404374,432.0,25.405102235417413,3.5523102979269834,-2.591153921024895,-4.953625360763618,0.4784066418742412,-0.27107012832321137,0.635486705500987,-12.37434355890799
1.48,-159.98668779527503,0.005272608758489684,-9.815783442319782,0.0003321327545559297,-0.0006614175376152673,0.0011527636911037322,47.450067094078946,8.550000146365447,432.0,25.37204146018619,3.793101087620165,-2.1191889816265643,-3.524840169282358,0.054841441564025616,-0.0025654063192025642,-0.8302831702187035,-11.90013295152191
1.49,184.62647760897093,0.013134075602551368,-9.827609860252322,-9.173623440658917e-05,0.0018723307824561942,0.0008729435568186409,47.45006763872955,8.550000148339674,432.0,25.831105141131175,4.0658967190987205,-2.0622437484701805,-3.188729452165865,0.586195872831391,0.45338566466267305,-0.5099607310413165,-12.636581894566154
1.5,-137.19902707921665,0.006482037263783854,-9.808501289211723,0.0012306938005498954,-0.0010628100938850278,0.0012928342438424368,47.45006806000441,8.550000150327053,432.0,24.732414892708782,2.8382229919193547,-1.6565874338893956,-3.4353701275771065,0.3470338053993416,-0.1648394863991153,0.45790796064255046,-11.958172585022403
1.51,121.06674325245342,0.01601411102188582,-9.807869490760336,-0.0016278024393153211,-0.000297289692679181,-0.00025909964415493197,47.45006859014834,8.550000152327579,432.0,24.867056479220643,3.504686242627109,-0.773561810109304,-5.373122685037119,0.7046907937785244,-1.0445250111555158,0.20632072829149373,-12.3039842573802
1.52,-192.8886657307116,-5.871684125794384e-05,-9.809943429138684,0.000258948205902602,0.000893257935690404,-0.0021535449611203216,47.450068946822,8.550000154341252,432.0,25.720852752237064,3.701886009365162,-2.8176424622397382,-5.123295937324221,0.30284959144046286,-0.20694346372891798,-0.5820915977193148,-11.929953449003946
1.53,182.80239384161348,0.0204672221762742,-9.807076067179386,0.0006256536143187717,0.00046352513254405175,-0.0007690056421847817,47.450069467889996,8.55000015636807,432.0,25.354798749867484,4.197090446048774,-2.775634061402363,-3.1653900694851247,-0.5233174472382107,0.24014975163605207,-0.4157249515466892,-12.907889794947597
1.54,-77.95301166746069,0.009836031402504379,-9.806147327023792,-0.0006144878701290833,-0.00014596792665156757,0.0014867077289641645,47.45006991885204,8.550000158408029,432.0,24.634337204476992,1.621107051483805,-1.162566134346482,-3.830428464023146,-0.1265559330242766,0.4187030470400354,0.7553176951190638,-11.969462203093496
1.55,74.2654263783686,0.0031295951625600164,-9.816775430691223,0.001191721259225696,-0.00036336436145299424,0.0003520689776338921,47.45007043659535,8.55000016046113,432.0,25.539872049305405,3.455171764056833,-3.428557633698132,-3.995296709677601,0.9763517456662151,-0.6139738547840474,-0.567371191054398,-12.491804995091734
1.56,-10.436236130961447,0.010798492105622786,-9.810762011089183,-0.0005812208702108696,0.0007245490672128582,0.00042498970208597293,47.450070944954234,8.55000016252737,432.0,24.77422612096583,2.695351327593528,-3.444496983684056,-2.6658059212024874,-0.5917896772994935,0.03583955184435521,0.34718844984745256,-14.402297524195783
1.57,20.767375757692758,0.006908101422701952,-9.802245206594792,-0.0010247115897146991,-0.0018260321192561612,4.486087874236258e-05,47.45007147199662,8.550000164606745,432.0,24.386396203614265,5.25062441611454,-1.7716809516334722,-3.6376202402889586,0.9250180097446481,0.39215456075053184,0.31546097705074744,-12.189583613808564
1.58,-85.20439206666566,0.015867270863141925,-9.8109909874482,0.00023492907605546495,-0.0004137799795627241,0.00031341395957258097,47.4500719224307,8.550000166699256,432.0,25.776515098747886,6.018864053949757,-2.0704546677349995,-1.7684783550440395,0.6873833749283742,-0.17594728217489267,0.05656197023752081,-12.251459763188647
1.59,-58.34577699364788,0.006296150572878201,-9.80448623150013,-1.2769076133461658e-05,0.000595322834012133,-0.00018960428108530516,47.45007232038265,8.5500001688049,432.0,24.838757151997306,3.5839377169438205,-1.1972020767616351,-4.154319320684163,-0.0714176574821612,-0.8654335063890831,0.7557926517577809,-12.712311730821307
1.6,62.47164241280127,0.01462119961940667,-9.805137695426863,-0.0007142064841272001,-0.000878351810481658,0.001544195285171542,47.45007277452747,8.550000170923672,432.0,24.924014278066117,3.6360673706905033,-1.740192760652634,-3.637552308266909,0.16496129281417954,-0.7260008780116834,1.038350542076317,-12.821952343465679
1.61,-115.30873510944822,0.002643468644056857,-9.817166644342707,-0.0006021981123371408,-0.000507744148547952,-0.0005944686747420638,47.45007312496772,8.550000173055574,432.0,25.140123597546133,2.0600825572391948,-1.5945853316013936,-3.557269158233138,0.02746686010003689,0.910171929438731,-0.1157194489546948,-11.934378699973184
1.62,123.84581278797323,0.011563007913101995,-9.791801547433023,-3.5256778975978884e-05,-0.00043817322588854727,-0.0005390843862058374,47.45007358678806,8.550000175200601,432.0,24.43356126275979,4.10994813360593,-1.2421442246627892,-3.657179003002411,0.04660073804715761,-0.4343329074946377,0.38995429800500836,-12.794949599648744
1.6300000000000001,-48.70448063093626,0.009619258718557781,-9.813755255955254,-0.0004716178339522138,0.0003132062213957739,0.0003831799092227661,47.45007400481783,8.550000177358752,432.0,24.39285275142985,2.9555367441056917,-1.783869219111857,-3.436044559100389,0.2977194750263037,-0.04854952648758769,-0.018375050466977794,-13.003157940547437
1.6400000000000001,28.914412742532864,0.024814560682056473,-9.811757055564197,-0.0002943893471976782,-0.0002648753738947757,0.000539862117564513,47.45007444885082,8.550000179530025,432.0,25.021810407159364,2.9315858698240143,-1.0887442138453656,-3.3886337357436807,-0.0750150369620112,-0.2988052181765485,0.3534825619775024,-11.56159825779087
1.6500000000000001,6.765184734741223,0.011442756577515433,-9.810448325960904,0.0005636858372291501,-0.0017837242613695913,-0.000653812384728302,47.45007489896254,8.550000181714417,432.0,25.034016451450857,4.109850510314434,-1.9525410624694248,-4.379651397380636,-0.4668146261813746,0.45582347617839414,0.348223947372771,-12.317509685962508
1.6600000000000001,26.02588282133288,0.010536504037963615,-9.788011182774625,-3.727210398771615e-05,0.0005478770309464547,-0.0003144709151441306,47.45007537247828,8.550000183911925,432.0,24.893292782323275,4.5614165416281836,-3.1271417287069423,-4.124696118103933,1.2077012761829293,0.17896172185683754,0.09151689747678438,-13.117312050573576
1.67,27.46687330240832,0.009908283020147688,-9.801898808124681,-0.00015551186327390133,-0.000509702287286944,-0.0012129938685035986,47.45007587069076,8.55000018612255,432.0,25.100324520159095,2.291147483937249,-2.356919944833678,-5.285011144142528,0.4828124760203045,-0.4284543611327638,0.4190388777180568,-11.747805172071656
1.68,-65.7588205502761,0.010465621572270746,-9.816346203406592,-2.202371410173305e-05,-0.0010721330156505324,7.696021618937549e-05,47.45007630976893,8.550000188346287,432.0,24.73888068487443,3.413956823393034,-1.595143977085318,-2.557226269868538,0.3565436660272653,0.44995997652242364,0.34155769533047037,-11.711469742114948
1.69,44.69771728033906,-0.005163830429296516,-9.799066948746386,-0.00010712987797135104,-0.001115041241522047,0.00144575953254236,47.450076789052225,8.550000190583134,432.0,25.16837433667999,3.012434422529733,-1.5522848691318114,-2.9081151412328787,0.4851735542852543,0.3206552066075012,-0.37902239183607067,-12.440984858361261
1.7,-117.97130316744294,0.004932143763434366,-9.79871938231807,-0.00011233596484228989,-0.0008814789128765209,0.00038190010311638605,47.450077162246345,8.55000019283309,432.0,24.541511566847248,2.25012759682318,-2.0081673410550596,-2.946672200975165,0.6103620103669909,-0.4549808678346663,-1.2029323597840726,-12.666285112923477
1.71,82.71911396405633,0.009374547622573611,-9.81092750506379,-0.0013872773696170693,-0.001234732221533084,-0.0013531111206025472,47.450077609843746,8.550000195096153,432.0,25.461363151359645,6.095697796333727,-2.0200099184649187,-2.2932576225868244,-0.3111543109791881,0.515375119283967,0.9900263220822543,-13.58573540492569
1.72,-39.6970737312767,0.013595455266333399,-9.81720034517054,0.00028462959302490046,0.00042488575013948976,-0.0009835714956635457,47.450078021737646,8.550000197372322,432.0,24.73931221983813,2.2703518760751673,-1.360472558906232,-3.6070772941531817,-0.8827114494541355,-0.5482031742773802,0.7261745863531268,-12.832336486211116
1.73,74.73296636740514,0.02352655038017453,-9.801991308405208,0.001215286937409741,-0.00044302376395003124,-0.0005101350282103687,47.450078500840945,8.55000019966159,432.0,25.572031227944738,4.7836700165916906,-2.884291276288964,-3.1003277708162105,0.950551315680816,-0.6187659925900783,0.8122847518242364,-12.165877529903433
1.74,4.194255743995736,0.010926588274232056,-9.814434846590519,0.0009427768957127566,0.000986076989736778,0.0008372092510465309,47.45007898371282,8.550000201963956,432.0,25.176164957651974,1.169251295467164,-1.7970005377205385,-4.038209344064542,-0.4930707935639669,-0.5896857557536346,-0.266833896386654,-12.67179651526086
1.75,-48.33123300599494,-0.0025166793555533237,-9.800931140203485,0.00023070413709296855,0.0013997365151242282,-0.0004754727146459037,47.45007942311954,8.55000020427942,432.0,24.853153295691335,3.7367077536596227,-2.283949983249646,-3.8089588328662276,-0.18222313259976688,-0.2373130007389406,0.9255066547623099,-11.599963869108713
1.76,-27.230548208161693,0.0032920195582216514,-9.793870258764032,-0.0007153212390993086,0.00023937161109254394,-0.0008383829668856794,47.45007983804293,8.55000020660798,432.0,25.950407566601626,4.041347278907871,-2.0575363041776007,-3.4707203194579157,-0.2963503305576026,-0.786949686891258,0.42527586216421903,-12.55888421553258
1.77,81.78363765050221,0.00486319688090905,-9.804180232435026,-0.0006893945146077079,0.0013893784846018586,-0.0008937368055699273,47.45008032651735,8.55000020894963,432.0,25.940564123567018,4.743241966683728,-1.289259777198046,-2.743441764383453,-0.2074577561850716,0.5804060270955502,-0.42101445189284725,-12.515887201872385
1.78,-90.98660432122966,0.012019586796279038,-9.78691354919808,0.001592298150946687,2.4074849537816393e-05,-3.522333316021496e-05,47.45008073316433,8.550000211304374,432.0,25.30068475378481,4.46012224217168,-2.520547572889712,-4.965314515735147,-0.11620115666938191,-0.900017383635928,0.16754018826532618,-12.943008006214619
1.79,96.20440943192956,0.021308387880638564,-9.81640497827551,0.0025087957504744,0.0006270835745044376,-0.0015253429085592086,47.45008122632448,8.550000213672202,432.0,25.043711231925236,3.9105606710977208,-3.0513084283843326,-2.3144680154959363,-0.5261707125594431,0.012204346590823761,0.41552583480444155,-13.14035285430404
1.8,-5.338524549080727,0.012332986817632391,-9.793842998867172,0.0009298883770719396,0.0002381143523361754,0.00025394073403638584,47.45008171467771,8.550000216053117,432.0,25.398630333951086,0.5137733241834641,-1.73108174193008,-2.439654256891507,0.13190139256269753,1.2782749358870058,0.07113033908559534,-12.387610899768275
1.81,-103.53938384156622,0.003943374769343151,-9.816777972664747,9.83990863504363e-05,0.0013535510292879886,-0.0016874603291018569,47.450082109922654,8.550000218447117,432.0,25.682686952316313,4.2678964723114685,-1.1615809530511765,-4.080505613043402,-0.5007072934788045,-1.007588391664548,0.5162368192970612,-12.593500376325622
1.82,-12.593727202377323,0.006105519698571421,-9.801381539272308,-0.0003626774378390992,-6.006268322254811e-05,2.962790760897824e-05,47.450082493844256,8.550000220854196,432.0,24.942934411655585,3.452712227717861,-1.6689423434643762,-3.352621128369338,-0.01254013853182133,-0.22129878238157583,0.7182639973809566,-12.022192009174919
1.83,131.07433811587276,-0.0047884513056471786,-9.823128160864883,0.00046307854817702516,0.0010738120536925898,0.00022389578093134083,47.45008299565448,8.550000223274353,432.0,24.248115989445786,2.5365137248796543,-0.6931291580515443,-0.5885139729300626,0.2916602825375235,0.5007310107899545,0.05457873991741413,-12.98368066266478
1.84,-197.20466646535522,0.02431899350257189,-9.814201851832744,-0.0007564547675231521,0.00021340346839000978,0.0005935129716261485,47.450083320114345,8.550000225707585,432.0,24.705443456380113,1.6599707034844404,-1.836624274386259,-4.552728201234347,-0.5164482909104423,0.3935169906980152,-0.23569783080286807,-13.307327367490247
1.85,50.094690505279594,0.009245253314779722,-9.807501003298107,-0.00012037054732414254,0.0011938049771792205,0.0005694584345988014,47.450083689626354,8.550000228153891,432.0,24.856431519633276,3.0993181602744855,-3.535436736114544,-0.7930411874446306,1.8898719398382104,-0.2574579626838142,0.5123548135553536,-12.178647615209552
1.86,69.24449915481688,0.01866373459066358,-9.807557420332463,0.0013157753853505795,0.0003323654413970878,0.001396612914170829,47.45008412141058,8.550000230613268,432.0,25.452840282324146,4.558529255485281,-0.8223255024234072,-5.330444044953833,-0.40557981587239034,-0.06442865776928298,-0.6442094056789666,-12.46301556517791
1.87,19.26353730916524,0.01792747640718341,-9.814625169207318,-0.001191415028903709,0.0003973939519463147,0.00041523080897844906,47.45008457052595,8.550000233085713,432.0,24.9026490319311,3.229060276556976,-1.3566442822244522,-4.056922953402299,0.16475999421603668,-0.22099779353074114,-0.9469811118783766,-12.92062412420677
1.8800000000000001,3.5556773969737128,0.011462645093897803,-9.800935988758113,0.0018082799120767684,-0.0010978101679029843,-0.00018126740517238196,47.45008502283861,8.550000235571225,432.0,25.273220726580323,2.978387048104766,0.07918668615922608,-3.827745386273528,-0.10794362317869227,-0.36599991150619005,0.08657595826746305,-11.730728478171603
1.8900000000000001,45.495072990645156,0.014493395132972755,-9.811484329104623,-0.0010003536735463112,-3.294184311603833e-05,0.00043115382082746186,47.45008551607338,8.5500002380698,432.0,25.08801864486507,2.6564061004380255,-0.4608289175700264,-2.9429474558984197,0.4737894802048632,0.20822006387077613,1.158333507759226,-12.59305949964806
1.9000000000000001,-32.37011664101891,0.03144834036854881,-9.812098915007812,-0.00018311740161938166,0.00042752668996928224,0.00032188110611982115,47.45008598019803,8.550000240581435,432.0,24.54803354153258,1.6180085949510434,-0.2515433777143228,-2.645309364720752,0.737431533839834,0.40461420012198795,-0.08256409935323625,-11.84430416120827
1.9100000000000001,9.314696722785063,-0.0034046114026244946,-9.80303392634897,-0.0009771910371983942,0.00032717887736961025,6.844970398813142e-05,47.450086452708646,8.550000243106128,432.0,25.199683373668336,2.824110594112976,-1.230304183264184,-3.2727937083943877,-0.29638212846627654,0.21909079479556806,-0.779969794333621,-13.121976286773089
1.92,-91.21119650758709,-0.0009177422083427329,-9.81061982216118,0.000409963292751486,7.790467037233661e-05,-0.0011200231668368232,47.450086843186654,8.550000245643878,432.0,25.17577753142367,1.7693895886131203,-2.211218242584751,-3.014404682311653,-0.34886752796585174,0.42705759849290653,0.19567534935911163,-12.284012953787089
1.93,113.2608311715253,0.0006454352088593098,-9.79428078394277,0.0005260616451732706,-0.0006908665796330327,0.0003000458053693074,47.450087335526945,8.550000248194682,432.0,26.273556373484674,3.262916230409407,-1.333465968208348,-3.2406320667744946,1.0735033755398848,1.2821865738518148,-0.35426055585062066,-12.209184873698389
1.94,-9.690207935150225,0.004903887726085049,-9.790230856194915,-0.00026031030171891714,0.00014622019672822894,0.0010257604698258938,47.45008781913601,8.550000250758536,432.0,24.4670325601292,3.4857734063645274,-1.4772478426862965,-2.895781260697598,0.857503451483917,-0.5110814979760449,0.5153859692834689,-12.311549377123654
1.95,-25.3121187482752,-0.0026127157146673356,-9.812480363883338,-0.0008664510016063976,0.0017165938594127718,0.0004540841257547237,47.45008827998424,8.550000253335439,432.0,24.333094744253987,5.279979995533516,0.2214651198088906,-3.4303206744785797,0.5868110569076137,-0.22796719258386142,0.6646128729039891,-13.39380928558445
1.96,-76.40996380463432,0.016058513800327842,-9.798269180666743,0.0007146917069827763,-0.0021272097624644194,-0.0005045099508950939,47.450088672119584,8.550000255925386,432.0,25.382523198774088,3.3941129302404236,-0.9149720461607159,-4.118447839681032,-0.9719343584434187,-0.234562495449204,-0.024687737616037375,-13.427823424742568
1.97,56.193118605568046,0.00477420643827545,-9.809768508094939,0.0008836272569847894,-0.0011523204823727102,0.0012102306210113871,47.45008911479529,8.550000258528378,432.0,24.789569410480322,2.916113834397876,-1.9181773624841598,-3.3412303195848017,-0.14252542540343885,0.799502287908897,1.2251548274771968,-13.146876678819652
1.98,77.35278480426571,-0.0009039315148763986,-9.805561410073068,0.0012000892631925377,0.0001467960605680857,0.00017523636034360763,47.45008962704845,8.55000026114441,432.0,24.27623211776703,2.8255017775618003,-0.3622321692825108,-3.899636573658995,-0.5073341568261168,-0.4095700076139862,0.7845384755589142,-11.671043269025144
1.99,4.548227567253736,0.012136839034513463,-9.805232850749178,-0.0008886104670351514,0.0007463264823831205,0.0010495853840023163,47.450090143400985,8.550000263773478,432.0,25.246006486520614,4.321037497869142,-0.9982728745416695,-1.5926547731761338,0.8737302619748167,-1.023094416381929,0.3377505342818854,-12.414593349436577
2.0,-20.56128883616196,-0.007833018076247023,-9.78174300229699,-6.591764493806328e-05,0.001799759498842485,0.0014435434608709562,47.45009064126693,8.550000266415584,432.0,25.31277486280136,4.783947692263362,-2.4273947711776085,-3.7856809650336123,-0.18293406728275582,0.3932081595718655,-0.0527870444140785,-11.89524456234982
2.0100000000000002,-20.031916953863785,-0.0023867517017313877,-9.806225154478563,0.0009354188880394574,0.0002311006430024849,0.0007234415128135407,47.450091121109736,8.550000269070718,432.0,24.488057291298546,3.3228617816841446,-1.898191866799541,-4.559219753973478,0.3572054441406989,0.16362796775020103,-0.9116849390326824,-11.795743310867318
2.02,-54.329260303459044,0.0027505457353463065,-9.808680535086356,-0.0003104115104645349,0.00010533870982202363,0.0003516375070982101,47.450091552081616,8.550000271738886,432.0,25.67020259484775,2.3353608417997687,0.08083913898552386,-2.420840614727818,-0.07386238420499769,0.3021739308830946,0.8138616295785953,-12.911877023385955
2.0300000000000002,-48.23250077541557,0.00882275784142706,-9.811149848099092,-0.001573854276223003,9.521554308482265e-05,-0.00032343164595971237,47.450091939677975,8.550000274420082,432.0,25.88110163855713,2.37845543587418,-2.575401385703019,-2.5766047499212807,0.5487636570863095,-0.45062072296185673,0.024997133798360813,-12.707653645452398
2.04,-43.99587223856615,0.009767959060100523,-9.820159877748987,3.997176713011682e-05,-0.00016228816996774088,-0.0013266121625578916,47.45009228770856,8.5500002771143,432.0,24.63241619243146,3.49285186357572,-0.9981554849315131,-2.714179668059246,0.089533592755154,-0.4496431616195074,-0.12901602893877087,-12.234873310314383
2.05,93.13103008031698,0.01832327357096433,-9.808840395573613,-0.0012521421167782413,0.001097058912620564,-0.0004225655135777502,47.45009271950107,8.55000027982154,432.0,25.36176570301118,1.267455059935537,-1.0434668613246505,-4.639786982266909,-0.3205508869785081,0.3244199830284919,0.40783314862868203,-12.613697332960413
2.06,2.482114309706632,-0.0008048685534255938,-9.793680644918423,-0.000448328659109409,0.0009801789241909672,0.0010270280752885637,47.45009315352116,8.550000282541802,432.0,24.872777389975465,3.68631774315282,-3.110275255583395,-1.7352513327258299,0.8673097521618781,0.24609113712355823,0.19475658375676952,-13.315023056560406
2.07,-43.20686782560472,0.0041509837037124585,-9.816191870339047,-0.0002466916764857217,0.0003562276978922321,-2.9867106111195518e-05,47.45009354869101,8.550000285275077,432.0,24.61989841445325,1.7183165707179857,-1.081508473660556,-3.068875845712078,0.3498181887482448,-0.33601671160587476,-0.14258988371615805,-11.851163576854976
2.08,127.8155913044371,-0.0021792527472926926,-9.805958288593803,-0.0006341746227900248,-0.00020489644781944622,-0.0008914842738780935,47.4500940587919,8.55000028802137,432.0,25.277149093242254,4.549684365299495,-3.4348165073117647,-3.493446637250293,0.09353620528156023,0.4069185138849056,0.32498044919329055,-12.376349628298271
2.09,-81.16601547922808,0.0035515791799881555,-9.795005954485948,0.00023083082375629596,0.0009699487648442139,0.0012957949451702666,47.4500944958923,8.550000290780671,432.0,25.788398440611928,2.1304152335165547,-0.45558481418776253,-5.2311047726967255,0.07517198489002674,0.507766780629516,0.6513554566260463,-11.71906498809074
2.1,-53.03559078585939,0.007473747051006827,-9.796462041619867,-0.0006498818092686125,-0.0003264601381435835,0.00014050254037143063,47.450094885294234,8.55000029355298,432.0,25.46961245442852,3.9816398998617473,-0.7767992715298899,-3.4361646413726827,-0.02342246003786927,0.627519070541187,-0.054378555487238245,-12.400063028577437
2.11,157.13539578552525,-0.004947681270637367,-9.807444454827515,-0.0003547486252638108,0.0006474080898854871,-0.000379162345419849,47.45009541602371,8.550000296338295,432.0,25.99557880775559,5.292591203898674,-0.3743223921327401,-3.4817703429429265,-0.013624719741019115,-0.10923427930201789,-0.2826310770408277,-12.314663572893618
2.12,-139.68419783274612,0.0008647734320001606,-9.803532005654573,4.375676894472712e-05,-0.0015189388003869328,-0.0013400108042681451,47.45009582113458,8.550000299136613,432.0,24.574980374505973,3.940493703016653,-1.9151949189399347,-4.33427178791656,-0.037487845558499516,0.0332360689605654,0.21430123178744348,-12.018446686566643
2.13,26.045542382633634,0.0013014094121611124,-9.797562806535561,0.0015064618065410973,-0.000218223577969284,0.00011744653267047358,47.45009624966156,8.55000030194793,432.0,25.339369501025462,3.7407786211437535,-0.40697822598028077,-2.220254862421795,0.559527947198576,-0.1048817106787191,0.5920168054569452,-12.670119972916794
2.14,29.931385799388245,0.006897083161361274,-9.819347406285047,-3.187979913136435e-05,-0.0009372990452108888,-0.00048544504394591406,47.450096705104876,8.550000304772244,432.0,25.77199387054616,2.97673896587479,-2.646180408678716,-2.4171210076542513,0.27918472979768827,-0.07072597433295322,0.6734184396959632,-11.993300688728551
2.15,19.472381234310127,-0.006358460400768958,-9.809641490437677,-0.0001952711405688252,-0.0004370230687415343,2.816143955296374e-05,47.450097178056986,8.550000307609555,432.0,25.775906002551075,2.7898506475141818,-0.965434035560886,-3.4892626956245145,-0.038522465503191355,0.056797544097963885,0.4813744394364222,-11.838601008015608
2.16,4.766888037439823,0.013826294648513959,-9.801087827166388,0.0012856916848074296,0.0004925303708288727,-7.640162016658356e-05,47.450097655288246,8.550000310459854,432.0,24.164266953691698,3.374981360068284,-1.4181094956468618,-2.310515998150628,-0.007267458686518749,0.25127038104758176,-0.4661127835179915,-12.367705936232705
2.17,-64.43983130933093,0.0005471938126274493,-9.802040952140635,-0.0013699440546198647,-0.0006546460288621588,-0.0014102177178708483,47.450098074560294,8.550000313323144,432.0,24.357668962702874,3.980044013107107,-0.5287905747647528,-1.7152875936870202,0.19523704679111747,-0.8072716100781625,0.24846361276920242,-12.85414328156581
2.18,80.49084709716159,-0.0007914098064615831,-9.81380915276628,0.00022916070220335073,-0.0003164614002987754,0.00022410584753755516,47.4500985662139,8.550000316199418,432.0,24.70620709750968,4.711224536217276,-1.421406057151465,-5.23092727144306,0.21623875016701405,-0.27943469251537884,0.4115387857147162,-12.604178798711724
2.19,-45.58497657424865,-0.000410113114024481,-9.811984799335162,-0.0011349147147134615,-4.0929559292374106e-05,0.0005977314432034594,47.45009901687269,8.550000319088676,432.0,25.26255389061834,2.344369083789365,-2.219742241041203,-2.4405709854636086,-0.5722809750174026,0.14587688428960646,0.3061873590449897,-12.487568185439915
2.2,122.42754998325708,0.0296869171262368,-9.807096378342338,-0.000934316101997767,-0.0003026543854550634,4.307275914745747e-05,47.45009957763541,8.550000321990913,432.0,24.413803467027087,3.5828644209570553,-2.0189783560519894,-4.603964098733534,-0.4009244841422873,0.9072373599725556,0.3562299040894267,-12.50257559130005
2.21,-179.913115933462,0.020378495354975358,-9.807053173114271,0.0009513023863841051,0.00014078407573465653,0.000548289723518413,47.45009997659507,8.550000324906128,432.0,25.36612125503549,3.0624694604027702,-1.3138871327970953,-4.484937765544113,0.6690143146179616,0.1821611522184259,0.7220893235917824,-12.492676710356012
2.22,72.6641174429238,0.011375993847861702,-9.798257663638056,0.0017973605491036842,-0.0002848599577834462,0.0010128684644583942,47.450100440919414,8.550000327834317,432.0,25.117013167204952,3.884465925587823,-2.0126600221115223,-3.1498752335097353,0.16556988552363788,0.5166265638844016,0.4531732248422433,-12.548925137708569
2.23,17.757392934057787,0.01929405455085592,-9.794463782917287,0.0001582293167632133,0.000765844914308763,-0.0015751838101642416,47.45010092122231,8.550000330775477,432.0,24.29280794907468,2.5687915219253297,-1.989264451174896,-3.7795975107574944,0.058900485724666024,0.04041395198039019,0.6784308902332925,-13.561185167205517
2.24,-92.96587664182785,-0.007407438717373238,-9.797340337390581,0.0006821142278003201,0.0008447129953065726,0.0005513477780520633,47.45010131794199,8.550000333729605,432.0,24.486076220808933,4.473053556581781,-0.22874406423753335,-4.428354126675914,-0.23552029756609086,0.15298111048804747,-0.39579699071945695,-12.330407412255258
2.25,174.33572323161658,0.00967096033449124,-9.799228038109758,-0.00022990486927975269,0.0009411276413739342,0.00021982041429477545,47.450101871443174,8.550000336696698,432.0,24.251300172393087,3.7263178419480414,-1.1983922016790107,-5.9808542754258545,-0.31848157093122187,0.006488587055983092,0.10808566609607229,-12.739442344820356
2.2600000000000002,-102.81958650129266,-0.004406850761772231,-9.80853144962191,0.0009417095332067002,0.001490648600755092,0.0001288339889367358,47.45010233247818,8.550000339676755,432.0,25.068875681375285,3.0590124060793693,-3.316290525554363,-2.627596788157979,0.08542714174562231,0.6859107600390464,0.7852913603716357,-12.048759741572832
2.27,-0.4650005062211766,0.015340032548902744,-9.803017175084225,-0.0011669027473167287,0.00012601083022460239,-0.0007031119891793497,47.450102793100946,8.550000342669769,432.0,24.689162649449617,3.3664158277046496,-1.5750711087672715,-4.295548461821082,0.8900587518428027,0.8062272744028589,0.0646626326585246,-12.829864942407976
2.2800000000000002,-48.960673703838836,0.02706242089685784,-9.812775583594007,0.00020911365691570386,-0.00048514813082447823,0.00014029081224867758,47.45010320970663,8.55000034567574,432.0,25.032503096815518,3.258563062796489,-1.359193085719589,-4.309157971619039,0.6012381882343744,-1.1468011321205853,-0.28777623045534795,-12.306320171183286
2.29,38.175818154056486,0.007476400422156708,-9.799248440989116,0.001644471392245499,5.075986100450584e-05,0.0004166350342345101,47.45010366066754,8.550000348694665,432.0,24.65620637423379,2.424738402192788,-2.094488310754815,-2.9494992641221716,0.8791886195979928,0.021313987688423273,0.011779384877017851,-13.672779189427862
2.3000000000000003,55.44958271860747,0.0010302052591771426,-9.796768035470103,0.0004520469371354506,-0.0008374640299826043,-0.00021220792422718533,47.45010416149916,8.55000035172654,432.0,24.153771907743796,4.123587236248327,-2.6647114334552553,-1.8628048500129704,0.8669024169188897,1.610209146519573,0.16344892988417026,-11.813045364075354
2.31,-37.1934814441131,0.0012206942793514582,-9.821135816175193,0.0024721798647115937,-0.0019148219728667031,-2.7126785192932663e-05,47.45010462888725,8.550000354771363,432.0,25.20338871447214,3.035056588511685,-1.1036383159781762,-3.905183009101701,0.4852745154059144,0.5055662932884145,0.5131465694945035,-12.852423265005262
2.32,-61.54149280341633,0.012995569672056291,-9.822825658264662,-0.00044851573794283994,-3.291342297282728e-05,0.0006254850958721887,47.45010504092702,8.550000357829129,432.0,24.840133695471433,4.5620699839102885,0.09916146725141761,-3.4940583052034055,-0.7113837425868534,0.0556655173644538,-1.1908118721032626,-12.186693628638066
2.33,10.526801775649972,0.010390562862620054,-9.817173782804195,0.0004844670761978202,0.0005226430243619742,0.0002857053111099519,47.45010546243392,8.550000360899837,432.0,24.563435377890006,1.7247558465214454,-1.9589165380233688,-4.66176580960917,0.1644177425204728,-0.284060758001469,-0.28997195422867306,-12.783519248985645
2.34,-9.6767640431459,0.024510047523249572,-9.810454693180251,-0.00025678177470856497,-0.0011829257074190641,-0.000715444961126527,47.450105875238435,8.550000363983484,432.0,24.916895553112735,1.7668356191948638,-1.9502691882605991,-5.057205301606834,-0.8536247675232331,-0.30129214476525495,0.766930152087616,-12.791894712950489
2.35,94.52886910083011,-0.0008895967204768408,-9.82284104789757,0.0014878799859656228,-0.00022393278364717085,0.00038860046866260104,47.45010637305182,8.550000367080065,432.0,24.771878090870374,4.099497221573106,-2.2639078066930254,-3.1792917391355804,-0.20313104526706263,-0.8514558738627718,0.18895007053263624,-12.448732114345912
2.36,-52.61709539309625,0.0075178575941663335,-9.809259463452516,0.00015479705333557234,-0.0006641827900402292,0.00013106521954803492,47.4501068235397,8.55000037018958,432.0,24.295854102375838,3.0985550841228013,-1.5900592297991212,-5.286341352175523,0.21077441799372015,0.701883389912481,0.23618744687822607,-12.433468901541373
2.37,59.19650902308971,0.007522059359358209,-9.819571545664296,-0.0006852196323374184,-0.00015501786191292045,0.0015152375281121176,47.450107327274225,8.550000373312022,432.0,25.382350154221477,4.955982075577515,-0.6558212605058164,-1.3758642360132174,0.1587008437746513,-0.4693681061951807,0.09243643193739683,-12.46626696889735
2.38,26.3707064780752,0.006628787101347289,-9.814683208727455,2.5853608818290197e-05,0.0013990265501696857,-0.0005222751942153402,47.45010785471358,8.550000376447391,432.0,24.67009788617872,3.03303144440079,-1.0479534424201271,-3.185470646301183,-0.06684971355143557,1.3011739541962646,-0.17568224888776374,-12.564011077218437
2.39,-82.16811880029016,0.010233960157311203,-9.814165554722525,0.0002554795371811482,-0.0003694620444450619,-0.0005792821128706959,47.45010830826752,8.550000379595682,432.0,24.592563889782834,3.9718730006913487,-0.9900515594761188,-0.5184999238266088,-0.27547764756328674,-0.02747145070615379,-0.18996480517796807,-13.11303580809824
2.4,-91.72459249912873,0.008508088846244195,-9.810255420023296,-0.001611188826313558,0.001135808088558511,-0.0009161664343293211,47.45010867933408,8.550000382756892,432.0,25.49609454876228,3.6247960913596495,-2.1311388191488585,-3.3286782266355153,-0.03656262313529751,0.19678757014093182,-0.20001959880789696,-12.68574877848885
2.41,134.6981302858082,0.010304672658587002,-9.804504085330827,0.0007963194501711046,-0.002797688286762063,0.0007173928519176824,47.450109171545655,8.55000038593102,432.0,25.185701177101002,2.4809760584768217,-2.0793180016020267,-2.558474179889078,0.10329985228163786,0.11582728206504503,0.8660065210825061,-12.203592363004887
2.42,-15.579572776446017,0.014004245236118497,-9.794509336455262,-0.00043529412917846233,-0.0008971525597787387,0.00039669557153210525,47.45010964973774,8.55000038911806,432.0,24.209013418820234,4.382562324297098,-0.6739177583576691,-2.5827510695431632,1.571285333789365,0.24569408435682177,-0.4784751887796834,-11.941312164926556
2.43,-28.186544192814853,0.022335088296351363,-9.81574520897705,0.0003320865311817614,-1.707146502065142e-05,0.0014747469026671314,47.45011010257584,8.550000392318008,432.0,25.219029206326564,4.507747902500656,-1.4601981338189818,-2.277328711684673,0.160892323333012,0.40537916756254905,-0.03293803791624267,-12.757644586336509
2.44,-5.077125046348606,0.01688448682260969,-9.812344525300457,-0.0005122688967182594,0.0010801172001000372,0.0008636804193567149,47.45011055085092,8.550000395530864,432.0,25.24331472076492,3.189770623263496,-3.1381471942794636,-2.947158970560332,-0.8151754441188163,-0.661456496917306,-0.14166652193339987,-12.174558665538143
2.45,-19.514198338722405,0.00012107260674850372,-9.798110591820027,-0.00020384646771599076,1.5275937107473484e-05,-0.0005458348625494145,47.45011098157361,8.550000398756625,432.0,24.662584680729484,4.581205975688238,-1.3457076475097105,-4.059493369829504,-0.6246386260631824,0.11586515415073151,-0.5848810280905778,-13.637319769209254
2.46,54.6757846967014,0.006285269082037644,-9.815883341227883,-0.0006409508114501591,0.0004775002317560137,-6.413046725509014e-05,47.45011146148249,8.550000401995286,432.0,24.225575652341355,5.459278298930686,-2.6786009530502493,-2.9142016252624137,-0.30298183027607006,-0.5457355587469235,0.15306239165618302,-13.16250221103509
2.47,-21.254837393865092,0.019475388437977196,-9.811919650805569,-8.748835746034194e-05,-0.0013825113707020306,-0.0004232630765254213,47.45011192228011,8.550000405246843,432.0,25.395266055829346,4.164095470016832,-1.655877229111712,-3.6309260146967737,0.286413423693695,0.5323495752871036,0.0687436271615516,-12.724238284590403
2.48,-84.5741017609019,0.00545786814143637,-9.812141030913354,0.0007082746625601556,-0.0005214511332883602,-2.4953829779350296e-05,47.45011230701397,8.550000408511293,432.0,25.834124354752564,3.188909466341631,-1.8773501192623818,-4.19105927813289,-0.3397704024316315,0.5348772768291543,-0.1409817956124625,-12.176390453401568
2.49,-15.353306735756044,0.02455811743940638,-9.805889940362233,-5.6207303342048385e-05,0.0013151948137209186,-7.980823902407878e-06,47.45011267793826,8.550000411788632,432.0,25.12111088126958,4.720991931158865,-2.0653519465704004,-2.8992159896311147,0.8281338786093537,-0.04770593317120473,0.4794491030768939,-12.418974079398419
2.5,138.8348282003742,0.0014695658066053822,-9.805720568685546,0.0011325810524688276,-0.0009467731829421843,-0.0008587193458266928,47.45011317372466,8.55000041507886,432.0,25.7411391139973,2.020285777326479,-1.3128880104858962,-3.63407234635944,-0.1430968099886429,-0.06546861611447718,-0.4312055363995929,-12.920566220475402
2.5100000000000002,79.35326449736,-0.0002643479548705852,-9.814874407684893,-0.0006471703832569492,-0.0013309022388561253,0.0011147500640560715,47.45011374088517,8.550000418381973,432.0,24.79119377164725,2.918643558689301,-0.8483003063407357,-3.3742103673795114,0.18928382200465127,-0.38884633372293714,-0.233670098798468,-13.000873882184699
2.52,-181.81657345043322,0.025328501187630068,-9.811436301784346,0.00024482920369331483,-0.0006941341239500161,-0.0006664971251194449,47.4501141445218,8.550000421697966,432.0,23.71276796045901,1.8399066312322874,-1.576752592898853,-4.349093589898838,-0.46101849974040854,-0.16856787436945392,-0.5117179543139643,-12.106473942608666
2.5300000000000002,34.40402976286814,0.004823104597821535,-9.808973290539406,0.000219069868944095,-0.001745157622779668,0.0004751389032821677,47.450114579087106,8.550000425026836,432.0,24.765764834353558,4.309606115368724,-1.4901147091092466,-4.9339745652715195,-0.47739222206334386,-0.10834488976558516,0.34702236217814897,-12.25278457833226
2.54,-11.37236450532746,0.013337502473777723,-9.80461643350147,0.002507011403769475,0.000679363697096297,0.0007907937370237484,47.45011500342013,8.550000428368579,432.0,24.815663985739633,3.3964137876380582,-2.2130962115412753,-2.687620488723886,0.5960568700695978,-0.16196066564055706,0.010434671229065134,-12.079789859208441
2.5500000000000003,-28.554424272215307,-0.0004211653168667909,-9.818416636560796,2.971137823574336e-05,5.612635887908252e-05,-0.000632220165047351,47.45011540207498,8.550000431723195,432.0,25.102997265883705,1.867849700825244,-0.9673060976153306,-4.975595426708875,-0.534540110021633,0.011543270401750447,0.8893550682697788,-11.98106595630148
2.56,120.46284096153188,0.0102514165094144,-9.799650269895382,0.0004330517736947111,0.00022937102431885135,0.0006090345553872161,47.4501159090602,8.550000435090677,432.0,24.801632373727195,5.040872153694405,-3.6118474292135385,-1.7930132309514588,0.16559210956979517,0.8392560452396516,0.2267657112720886,-12.030321128158272
2.57,-56.68047740762674,0.027952831292600323,-9.807919425346107,0.00017384385052522037,-7.553791795486767e-05,-0.0005826799757807702,47.45011636508548,8.550000438471022,432.0,25.48692205544035,4.239411261560228,-0.448133761578164,-2.799684372424755,-0.012841632714904211,-0.0456229752170077,-0.3023805257590312,-11.753189004911983
2.58,25.029405585693294,0.00723763394310915,-9.813776767944818,0.00012036878353367362,-8.317242985283441e-05,-0.0008154563153722437,47.45011684361385,8.55000044186423,432.0,24.54427144412563,3.417897397054802,-2.5115877008476404,-2.7744281062705634,0.6974616312958918,0.1023121032274455,0.07235170671600141,-12.519092163147945
2.59,6.069904902196558,0.006614916288522588,-9.809675605258251,-0.0014789640824406493,-0.0016798376122542933,-0.00033743198240280186,47.450117327600374,8.550000445270292,432.0,25.39445334533705,2.851117580848271,-0.9025481293924151,-5.867541326436972,0.6442735846846277,0.36550591260314635,0.42473591244797837,-12.839733844807542
2.6,-27.025244813226006,0.01280951414351351,-9.804127067249361,-0.0002811744199975358,0.00012793916747604219,0.0006753725091719753,47.45011778728867,8.550000448689211,432.0,25.711056976347116,3.8887972895902876,-1.2805241962765508,-2.7758396618728796,-0.46386719128277665,-0.2221751438214129,-0.0771115998062635,-11.242980705548941
2.61,3.031159569976971,0.011165378207263143,-9.801404230511386,-0.0010290816392078,-0.0005477715540552644,-0.0006440463934378424,47.45011824970475,8.55000045212098,432.0,23.858671249006335,3.0774948826568824,0.11348239491271594,-3.3058826898025173,0.23342269437084504,-0.7511277294918068,-0.06993395759153326,-12.063102055929084
2.62,-9.6643482348158,0.008921685282445718,-9.79707604156972,0.0006108628143995779,0.002071350025451225,0.00013847982444360995,47.45011870343947,8.550000455565595,432.0,25.440525302442296,2.20073312518588,-1.2479887435983839,-2.762571951005863,-0.6023844417400626,-0.03773458168668044,0.2679961702234248,-13.769624369404085
2.63,22.472683725134576,0.003766859495374284,-9.793997544343632,0.0010377633545453914,-0.0007122345786095288,-0.00021135869036454993,47.45011917738989,8.550000459023053,432.0,25.735026715897867,3.857203971575741,-1.4989819775658415,-3.4570031582960823,0.0627657787930353,-0.9882767519111316,-0.1315755063808565,-13.523119769471277
2.64,-28.834836979273646,0.0032385503171403606,-9.817801487032753,0.0005585574947641589,-0.0002603763511897121,-0.0002538065874476938,47.45011962540885,8.550000462493351,432.0,25.564132969944747,2.7875819720530375,-0.33735153364457937,-2.9023059161222093,0.1505544056235534,0.5138405367260519,-0.2953883971196938,-12.32747017384179
2.65,-26.19583260081072,0.02770016135048769,-9.808413371376439,-0.0007681455091944439,-0.0003747671828836346,-0.0006894999920372154,47.45012004988088,8.550000465976487,432.0,25.046421197118654,3.9082728214051015,-1.3343263369377345,-2.59914567049584,-0.09584539011653184,0.16259054431937806,-0.16261208865037233,-11.908884667576901
2.66,11.822506448096647,0.016118280611771375,-9.807041546534391,-0.0008863159255124444,-0.0021588413592544035,-0.00025524724484610184,47.45012048498327,8.550000469472455,432.0,24.55349434305411,1.9139689019332158,-2.5892598383800527,-2.205261624361406,-0.4129617773318335,-0.04839154437486892,-0.9003514931727319,-13.542656460993364
2.67,17.618811982683827,0.009398776972574165,-9.798058740866566,0.0012033081755509355,0.0006594093624385085,0.0020948073033503762,47.45012093594746,8.550000472981253,432.0,24.63615088101626,2.9836540816047563,-2.0388039345415336,-4.665793358423663,-0.6007622459528398,0.6922587497673559,-0.12409525928059936,-12.921587672681358
2.68,-109.67773944405123,-0.0045424622532286366,-9.803291306997828,-0.00047556390007225525,0.0009105662532967115,-0.000886148999193977,47.45012128825823,8.550000476502877,432.0,25.51635699702091,4.709084167478442,-1.2853767222529713,-3.6718993960646085,0.15572371934845353,-0.29966063345337707,0.9277088995136137,-12.476472845827816
2.69,106.77231953016532,0.00036838186983468614,-9.797309417513818,0.00020230010969059082,-0.0005261968181418357,0.0001924384145208283,47.45012173658939,8.55000048003732,432.0,25.797567012369704,3.3021186621795695,-1.5452643669291755,-1.9205953111626002,0.49462076519311515,-0.5114050985988688,0.9369000129387748,-13.11583047416254
2.7,-68.2027387247567,0.020562859438719393,-9.806020219696082,0.0005245823985426716,-0.0010482239191074104,-0.0005733901104728402,47.45012212358796,8.550000483584586,432.0,25.018535223038302,3.9537988829911135,-2.421961554756362,-3.320657658347007,0.340145471098551,-0.5341128850099325,0.0416122765238625,-13.145351215026476
2.71,118.47544592066558,0.02101757047893474,-9.80882348672609,0.00104305349862096,-0.00013866261992546115,-0.0002464111806158042,47.45012261712857,8.550000487144667,432.0,24.587743285707546,4.189313574353665,-1.8494803609617767,-3.5918426349295642,0.2847554278523755,-0.03069908344476379,0.7164029473482579,-12.923044142863676
2.72,64.20747709419925,0.019510176756252932,-9.82491723641561,0.0009381878622563855,-0.0002469010895874481,0.00023562892024701413,47.450123168410364,8.550000490717558,432.0,25.441396909710615,3.2401327829976045,-1.7207059888866703,-3.329681656117626,1.093099753058373,-0.7972040628758091,0.5667745092820282,-13.314790212307013
2.73,-85.21399296057321,0.020502605774726127,-9.827820827989315,0.0015395581556106469,0.00012513394687210206,-0.00024581122796177985,47.45012364306328,8.550000494303259,432.0,25.622909204843204,2.560829355679516,-2.6834631454823117,-2.6759657939426944,0.2640530681161245,0.14704878596595852,-0.05105709932196034,-12.966750333822311
2.74,-76.4681815917304,0.013923609443374407,-9.796535295101709,-0.0011715921275411293,-0.0020932307904987803,0.0003936442707804393,47.450124048941525,8.550000497901763,432.0,24.88200481036009,2.440561779760965,-0.24264581280783237,-5.511737137859137,0.2760412650358439,-0.22679260093371031,0.14020843826687096,-12.56338470715088
2.75,30.483305060980033,0.023507251966362143,-9.80798070063642,0.0004939141047715373,8.059695571937415e-05,-0.0003633898571042192,47.45012448222937,8.55000050151307,432.0,25.224840638515918,3.084633718221055,-2.1720726968853707,-3.463023152733551,-0.1506525795452093,0.4033736872093663,-0.41313029989515926,-11.992077639357362
2.7600000000000002,18.359784423715457,-0.0037722922918182623,-9.81539555063971,0.0005441372658612171,0.0014053619826873839,-4.093875581199746e-06,47.450124932028366,8.550000505137174,432.0,25.749154960180732,4.092877991750651,-2.4103440696650598,-4.134347995129582,1.0771432145084239,0.21691399822098634,-0.35667843016162376,-12.991691366092121
2.77,-100.08490051080881,-0.00912288029389866,-9.803623080242456,-0.0016496691301984378,0.001942037481280651,0.0009654515721545137,47.4501252918068,8.550000508774072,432.0,23.787449822519033,3.9754046931839566,-0.271051183053177,-3.197101947690093,0.1971114878556804,-0.05572093740231397,-0.12601314882764808,-12.326391070501254
2.7800000000000002,90.21890375970203,-0.00658367760880269,-9.805462085503663,-0.00016910599460158337,-0.000405436333732494,0.00025134133299102655,47.450125732716714,8.550000512423761,432.0,24.911149913170707,3.05679194384428,-1.0363554534281425,-4.248771310304653,-1.1154762597687087,-0.40571894044149287,0.41357559479747497,-12.02762326997236
2.79,88.51150476243264,0.007493713781850772,-9.80633834222797,0.0016577186378062617,-0.0012528945116522649,-0.0006936293314135418,47.4501262532482,8.550000516086236,432.0,24.886001526983556,2.125641486013635,-0.8270168795749525,-4.049589780851911,0.3832490551796448,-0.7093913017383874,0.17883927427105656,-12.860391576838824
2.8000000000000003,-82.22307627216678,0.024781057138019067,-9.800442812038584,-5.571730948950582e-05,2.3164211306080198e-05,0.0003957429580794305,47.4501266998404,8.550000519761493,432.0,25.14665887949393,4.06383590537739,-1.4789281540345087,-2.007667192730699,0.20423804929652464,0.8863513397965995,-0.35075817669393144,-13.069724061521592
2.81,-50.247919965767544,0.001548092387034931,-9.803652911885589,-0.0007358997521554209,-0.0006208633213396493,0.0012558322037612396,47.450127101250395,8.550000523449532,432.0,24.00567077611982,1.6523768608750573,-0.755435962744298,-3.8062955330850703,0.5898978171132782,0.4192381464884132,-0.32476853717380205,-12.719917452153627
2.82,76.2119001007062,-0.003364215214400149,-9.797825269489847,-3.932889213324353e-05,-0.0004714181593901543,-0.00027659216641568525,47.45012757120339,8.550000527150344,432.0,25.507876645709622,4.688063005941577,-1.9892720476735244,-3.1137301738858705,-0.2320562905495636,-0.01751736149897196,0.901561828481925,-11.598175995604395
2.83,-45.9768332171724,-0.005156661657236784,-9.774391606987228,-0.001081186580621735,-0.0010371213867555425,-0.00044225184328231226,47.45012799980821,8.55000053086393,432.0,24.732821711130736,2.7259677870602657,-1.3005373419542121,-2.915872455528521,-0.07168455544047408,0.10099765445141053,-0.016434319369283135,-13.20066966647003
2.84,-62.699057373178725,0.011278135417243153,-9.806126236657803,0.0012460387537200927,-0.00042223004707324277,-0.001109954102801488,47.45012837201486,8.550000534590282,432.0,25.132084056502322,2.5586764412907694,-1.5170828338199223,-2.540045889915479,-0.26318879905036174,0.1192808084997628,0.37182931956415155,-13.257943708910336
2.85,-36.019560471790136,-0.002810694075501158,-9.803079056838286,-8.812598728425707e-05,-0.0015279383974179546,-0.0002667627496370701,47.450128711840435,8.5500005383294,432.0,23.990474486692637,3.1124524927025634,-1.1027827123942153,-5.004343193357194,0.19433494398027612,0.21732441378258574,0.01803940867710449,-12.176854258136864
2.86,108.18708154375702,0.00968506865500686,-9.80317465048136,-0.00036073831468089293,0.0017798481108529719,-0.0024144384862047905,47.450129148946964,8.550000542081278,432.0,25.857207400621057,3.282552603867964,-1.7131755906626753,-3.5494096768248125,-0.31683669499247435,0.4382257454472704,0.8735373678691659,-12.222265799266157
2.87,130.49254776629752,0.004496687012499964,-9.803618952283092,0.0010602166615833327,-0.0009670654920209012,0.001493590535877752,47.4501297033924,8.550000545845913,432.0,25.352692806686388,3.57592625470483,-1.6009256767993103,-2.3184910765750146,0.22697679485062988,0.9371670344161351,-0.0799559301470569,-12.831174011668077
2.88,-188.74162375578442,0.00025996405579989737,-9.79536734994712,-0.00010073106547261205,0.0009823080135176589,-0.0004751062961603601,47.450130088090894,8.550000549623302,432.0,25.334817705909877,2.419025994653208,-1.6642752449272997,-3.6432887905165736,0.5349379906254337,0.2612243715147351,0.6764617139250562,-12.344579558951947
2.89,54.038810031791655,0.012947446384057523,-9.810140515723095,9.552008469233577e-05,0.0010734686933781138,-0.0004532284215222209,47.45013052139384,8.55000055341344,432.0,24.99469174384552,3.940584306030577,-1.353498383629912,-2.631778457978978,0.3547119353545155,0.5115798422157113,-0.1688845272362364,-11.967161913947567
2.9,14.284335236381809,0.006519465487673276,-9.811730564387577,0.0010596951726702883,0.0009556918360785502,-0.0006221809133670315,47.450130967552255,8.550000557216322,432.0,25.54038108795571,2.0004899917196006,-2.1443027759954547,-4.678820136891859,1.035381769782234,0.8118106611067397,0.40015751203965133,-12.688401630858618
2.91,74.98418314967215,-0.0009634383846349737,-9.810465392917935,0.0010689764042327275,-0.0001596666468999862,0.0005885383089888473,47.45013148115218,8.550000561031949,432.0,24.59213592262565,3.8148075451739523,-3.3730486299801674,-2.72220141848029,-0.33688777163323447,-0.6441345804833124,-0.0104833401009852,-12.352335368615668
2.92,-156.161290012646,0.01126651151655299,-9.811541728790475,0.0007693858472166709,0.0012258499445707944,0.0008231813708578397,47.4501318543068,8.550000564860312,432.0,24.637210670554715,2.653508090673037,-2.673777236280254,-2.5886442076902214,0.26335092445926933,-0.006603876407991158,-0.243891045973217,-12.350941498478278
2.93,93.69727135809039,-0.001967840155190215,-9.80331253794463,0.0003130119417038587,-0.0002484884398382724,-1.2290763846707791e-05,47.45013231173454,8.550000568701408,432.0,24.639428148056577,1.8889973380309943,-1.9202734110389676,-3.3929417901889076,0.6441701907924446,-0.2005496572558042,0.18846815681182683,-11.884583725867389
2.94,-15.296427454636005,-0.0057441996072028195,-9.828249380150387,-6.901421289240635e-05,-0.0005218845253404516,6.844062870873524e-05,47.450132755388665,8.550000572555236,432.0,24.358698258975718,5.768844909202013,-2.947387106369389,-3.2223796549492936,-0.402048973564215,0.11014055891561239,0.16701035915228807,-12.62561338441858
2.95,42.748678953837526,0.004793474945142504,-9.811048728474772,0.0008945893066643535,-0.0012023499488441442,-7.961429166430889e-05,47.45013323749295,8.550000576421791,432.0,25.276882757552272,2.867169862805776,-1.5368635006775353,-4.182622273261759,-0.3868087626925487,-0.6496864439104524,0.6792507750239347,-12.851231277476415
2.96,-33.886648406357864,0.014884898055746174,-9.80929546537276,0.0008450828319019147,-0.00029628555039284954,-8.952518442549721e-05,47.4501336891354,8.550000580301067,432.0,25.068268684401374,4.122654061359622,-2.020144391650881,-3.164917114197377,0.19127420543122572,-1.024413799134484,0.6027272227328186,-12.305411830858413
2.97,1.971143785168861,0.005329521429344995,-9.809054075603926,-0.0011956145428535024,0.000822009887816403,-0.0015647729958878297,47.4501341425515,8.550000584193063,432.0,24.675634869573102,4.818156625166085,-2.26141487095136,-2.5884112678851023,0.1557767409221619,1.032198619217499,-0.18413686250834804,-11.814560089030335
2.98,-78.17166879538024,0.01170515318350473,-9.802097076343788,8.931211044338824e-05,1.9706830621894847e-05,-0.00024395552363275686,47.450134525648295,8.550000588097772,432.0,25.239685123539754,3.1446516434504534,-1.0072583597475888,-3.2729788585792803,-0.24975374672103143,0.5781684454479005,1.2136696201304082,-12.44056158615114
2.99,81.44920952681593,0.005411476459822557,-9.81122740043416,-0.0010333404201714367,-0.00024555908435797716,-0.0007117124113239381,47.45013498198618,8.550000592015193,432.0,24.82805112972652,2.914929004371535,-2.0210608386936206,-2.752042070386881,0.4553417554892111,-0.04813337865438204,-0.3500342128431646,-12.357482960764036
3.0,23.32709237105971,0.0017183990519393242,-9.79766302103585,-0.00035965745759879446,-0.0017201834831879494,-0.0008150975068144382,47.450135459309685,8.550000595945322,432.0,24.653258019451417,4.022592833858652,-0.9779958716958097,-3.1285167832925462,0.8276194513604127,0.15036930086807057,-0.007868079862798805,-13.006530430163304
3.0100000000000002,-96.05618402051734,0.018728117469080215,-9.81447387894136,0.0004354001188027327,-0.000792730485224649,-0.0007949272530388718,47.45013585025578,8.550000599888154,432.0,25.27740586137602,3.577044542568897,-1.4748250657936697,-1.5792141752349536,1.4103315362793942,0.22200386310023662,0.1660102729727284,-12.515031133888696
3.02,73.11305928127564,0.010459838690555808,-9.794861941001843,-0.0009784505651601648,-8.069097363441578e-05,0.0011404331946604943,47.45013630695889,8.550000603843683,432.0,26.26850823572906,4.775710500134962,-1.4164928771296472,-2.7092411846261957,0.7846318224191471,0.15733407762865143,-0.10168343460929369,-12.611372135044746
3.0300000000000002,-10.705880416064247,0.008865166172959123,-9.798502108047913,6.89614403258545e-05,5.368297643470457e-05,0.00044362332948398147,47.45013675401827,8.550000607811908,432.0,24.6225112393859,3.0798829650025956,-2.3360328136193713,-3.471166577318912,0.5114717258109738,-0.07126126084870049,0.20229489292988512,-11.631569611178913
3.04,-23.621987291835023,0.008133692911976312,-9.804241973072116,-0.0007730043268539188,-0.0006715613045015194,0.0004661942384864914,47.450137179837625,8.550000611792827,432.0,25.733423612991114,3.85983642311846,-0.39183572554672863,-2.891884333860164,-0.4851236108256304,-0.248316993069231,0.3688039333151673,-12.401225613716955
3.0500000000000003,-0.3893573809667085,0.016845842129929726,-9.813401479305229,-0.00029250168297098567,0.0010097841261488543,0.0002568002658252303,47.45013760532419,8.550000615786432,432.0,25.1256761114325,4.336005693283601,-1.9718715373034446,-5.101137438546103,-0.6164711378779975,-0.7783272195635714,-0.10644108924883122,-12.243832733848496
3.06,-27.269267864937138,0.015674687270692822,-9.822082547712224,-0.0005227762897346111,-0.0004811695768380398,0.0002283793192106836,47.45013800628684,8.550000619792717,432.0,23.861783632926745,5.702943764669515,-1.6411632632470263,-3.154130860320402,0.39510423417772844,-0.9906233517884855,0.057922197585120336,-11.813222168752052
3.0700000000000003,71.05339475051748,0.03164956913155394,-9.812778290392233,-0.0011650350445775786,0.0011804011174744004,-0.00010387165329320111,47.45013847114569,8.550000623811684,432.0,25.528392657735274,2.9686309215363793,-2.3631463342280075,-2.337905489105271,1.5037001643805727,0.03699836882981721,-0.6947873784671671,-13.053955165734342
3.08,-93.68472018193803,0.0255324554485624,-9.81115888211829,-3.176666954354781e-05,0.0011019070460363608,0.0011800245559162813,47.450138851764606,8.550000627843326,432.0,24.677856220344566,3.1708518424899244,-0.48573404362474126,-3.5228604246249136,0.23196311464618502,-0.23644349077920565,0.4505495450039292,-12.366914215981692
3.09,57.01081576326635,-0.006197532648345478,-9.807214147551456,-1.4865976070034331e-05,0.001444534860771509,-0.001265740688669123,47.45013928366058,8.550000631887642,432.0,24.431629281216978,2.0514453756751365,-3.275941682635799,-5.333238151418342,-0.2323808498972946,0.07380847788473308,0.8761814062003876,-12.4751536807162
3.1,37.903199095325405,0.01414182836098938,-9.803688732181259,-0.0010312199781869118,-0.001544481168534334,-0.001658743412277162,47.45013974965592,8.55000063594462,432.0,24.95306738046276,2.732201221445054,-1.2820203058714943,-2.42511210264903,0.1483207985854524,-0.06178619890143478,-0.315888809613188,-12.713543745374391
3.11,-117.73323890039819,0.012042211467978223,-9.812865389167921,0.0006581714424031309,0.0003840963445527944,0.00042178914779775,47.45014010975252,8.550000640014265,432.0,24.960085797286357,3.3762917125262497,-1.1915063229049583,-3.2284747945042276,0.09830059018871162,-0.2006771808122074,-0.07630156129488741,-13.291246743516178
3.12,82.27873989622016,0.0173024513035675,-9.79899715524868,0.0008603720682035078,0.0002692858957839443,0.000607645625299721,47.45014054383866,8.550000644096567,432.0,25.109561737741608,2.4946037933003185,-1.057008532718744,-3.2521175333950123,-1.27540971544625,1.18966283922392,0.08572445407716395,-11.899483459638969
3.13,-2.5802323287819138,-0.005917047211464568,-9.81554919650662,0.0005107719704084453,-0.0004114772795746763,0.0010641514829165526,47.45014097558656,8.550000648191526,432.0,25.719045038154693,2.1919956202392994,-1.264027816351326,-4.021157566923696,0.5782367179636981,0.3745986615920577,-0.25341879150423297,-11.788141357990677
3.14,-45.92536633427529,0.009869930227863456,-9.803720650982958,0.002164247357291018,-0.001695804892960854,-0.00043627208405614895,47.45014136603664,8.550000652299135,432.0,25.807641886580047,3.440636097925115,-1.3440209134402425,-4.275393364958587,-0.5380694503216336,0.5114778690846755,0.17945883023535722,-12.099153908083094
3.15,56.46910807835603,0.020222502662309898,-9.810962181382665,-0.0008903822993197909,0.0008701578910261802,0.0002941755757324743,47.450141807266355,8.55000065641939,432.0,24.261675241131705,4.196684216133441,-1.5430381079664248,-3.4285855139752774,0.801357650141399,0.5701397631703256,-0.38884995281697876,-12.825546710279761
3.16,76.63760387477288,0.015683012048447166,-9.79760551253066,-0.0009058950283139027,-0.00034556771372042897,0.001617442470379604,47.45014231744208,8.550000660552287,432.0,24.78422515262932,3.591038263745489,-0.6930909705770213,-4.059268585226896,-0.06106602387245283,0.1672191219600454,0.7532251396727287,-11.837258428672694
3.17,-110.35827939317112,0.02385809408158466,-9.801012431665086,0.00013103026803636933,0.00115603219797442,-6.849748346538836e-05,47.450142728353065,8.550000664697825,432.0,25.11730064780864,4.058571769942171,-0.2323700570748657,-4.419126036340354,0.6633130731381549,-0.6352571019879585,-0.08359083091314742,-12.299198099743817
3.18,10.87143333582726,0.011999229676224615,-9.80989442925721,-0.0010439618272234644,-0.0010178503311296363,-0.002993246362054407,47.45014314905527,8.550000668855997,432.0,25.86653529146071,4.778021788301885,-0.36142731130190664,-3.367883664780185,-0.5299738933877366,0.08022088017318896,-0.8409947761022114,-13.027979517213556
3.19,121.94949824259442,0.01588629541808616,-9.811436752908032,0.0013563207680271628,0.001073457728754141,0.0005723970706423119,47.45014367942499,8.550000673026798,432.0,24.803239399321285,1.839129782373289,-2.3985872772161616,-5.169985632541504,-0.3663278623049244,0.09612966415034133,0.512533714025132,-12.115290711251088
3.2,-109.48272762307994,0.020741715298012067,-9.81050062700129,-0.000869555210760303,0.0007334395081321443,-0.00011781095489984185,47.45014411135124,8.550000677210225,432.0,24.87841785354997,3.416425639055219,-2.950578435994939,-4.6950755025099475,-0.12058698826534728,-0.6532649354464841,0.741389891766209,-12.229491279778996
3.21,27.300613817063535,-0.004087765252386365,-9.79857788841015,-0.0002566853437592565,0.0017673541071400458,-0.0003897118832517372,47.45014456781444,8.550000681406273,432.0,25.115721057531204,4.836342385924253,-2.115873208232706,-3.2824092910565263,0.6095156784744012,-0.691687162414447,0.1780977168335012,-12.509369663707549
3.22,11.58482953555783,0.003293499063480241,-9.804879450696863,0.00016863100790683695,0.0009323363048976515,0.00022035221207066248,47.45014503469416,8.550000685614938,432.0,24.762084544703026,3.4089055672121065,-2.096710137297568,-4.724896554341935,0.39711333926324455,-0.17486681525343772,0.1695305639817207,-11.42143017671781
3.23,-101.06898828278756,-0.008224659510370503,-9.79345720321774,-0.00023182502101291085,5.8125532069280063e-05,-0.0015183779099821233,47.45014541068735,8.550000689836217,432.0,24.235533063877632,5.027411259670919,-1.6880228798003216,-4.339468704250124,0.5527996279501478,0.5984605634764177,0.5968887545104686,-13.051498763184291
3.24,80.32230581875325,0.02514101921175101,-9.807487061409244,-0.0007927941834981929,-0.00046840588025554855,-0.0010480480568129105,47.450145858924365,8.550000694070107,432.0,24.935631752497503,6.089942169253093,-1.7136885400422575,-4.006471683726542,0.8118645866105806,-0.2752235569126339,0.165437752386244,-13.055325878764032
3.25,-2.8885797753175817,0.01731891932064885,-9.81427988894467,3.620290143530425e-05,-0.0005275067931173852,0.0010582879533225212,47.45014630457123,8.550000698316602,432.0,24.619314788903253,3.195396058324432,-2.9807211592816785,-4.536753945279278,-0.673237447199221,0.27608443287455375,0.21218237021965716,-12.4577476492677
3.2600000000000002,-84.8157449807672,0.018642955075482318,-9.798667412121588,-0.0007349023003160913,0.0007939687763939252,-0.00046337076247757154,47.45014667395047,8.550000702575696,432.0,24.045697260085078,3.8032954395616305,-0.7637399667590038,-2.671493685767995,-0.7038513221999455,-0.27168932035804455,0.1554919180315889,-13.095860578063034
3.27,108.74912081243296,0.017134558843957603,-9.810080421689838,0.0010881919199401235,0.0008020188127912211,-0.00032375496740267814,47.4501471411333,8.550000706847388,432.0,24.937370943980422,2.9477377146057666,-0.17397388181578832,-4.795793569055184,0.5449173077261091,0.34311037780391,-0.7356033890609835,-11.87897752388747
3.2800000000000002,-29.19509558543156,0.006162598612779315,-9.812611791681398,-0.0004570249382449279,0.0009475661991178409,0.0004292839464457424,47.45014758205852,8.550000711131672,432.0,25.82605861333314,3.8613631867627314,-1.4971240622392612,-2.337476499785505,-0.7055002882689607,0.4169266387912438,-0.5074908963168435,-13.119167819862707
3.29,49.502346649294154,0.004975490299133868,-9.806443659868082,-0.0018240864522235103,0.0006045232301810074,-0.0004433238290763893,47.45014806750069,8.550000715428544,432.0,25.521873277875507,5.029729122408853,-2.4015384212888162,-2.6542533702461273,0.2891939660174521,0.14212651607635396,-0.1527988502260843,-12.60923279745829
3.3000000000000003,-57.92984379565465,0.025206540810696943,-9.811267928248371,0.0004788905118564805,0.0004873882546932791,0.0013759521852568706,47.45014850084899,8.550000719737998,432.0,25.09226200729954,3.3891052588365995,-2.608394758622585,-3.2104026912524533,1.424306049410863,-0.6704263326352905,-0.4690188036593433,-12.782340007250781
3.31,-37.35343452968457,0.0037772382574077943,-9.816452354670997,-0.0023275812307118936,0.0011914769387547071,-0.001430042350176598,47.450148900619176,8.550000724060034,432.0,24.57912472621445,4.278150585566886,-2.324339197968238,-4.573270113973498,0.044083405916056875,-0.24861425918167884,0.295000244325727,-11.908890235334367
3.3200000000000003,1.403018124511919,0.021063923735311612,-9.81266456694254,0.0008982110920527568,-0.00021120040072486303,-0.0002694670157621273,47.45014930166696,8.550000728394643,432.0,25.161178349134435,2.8263710931543446,-0.7066203027371611,-4.003026190941895,-0.05581085104892919,-0.37446655860682015,0.877418427532052,-12.064572406819147
3.33,90.1977009651896,0.004781346956778229,-9.80611545191499,0.0005598696695275459,0.0001685382282402783,0.00021783152907530883,47.45014978383095,8.550000732741822,432.0,25.193944208199163,3.617578581301888,-1.784619106545101,-3.604223078591543,-0.552547763720181,-0.155621444062246,0.20443837719362778,-12.919499377329549
3.34,-83.59781081983444,0.015620502065196402,-9.810574498379168,-0.0016970779302828162,-7.743874485736033e-05,0.0007827318768852733,47.45015019080483,8.55000073710157,432.0,25.19963900842378,2.828376938532701,-2.081010723747731,-3.847761535449828,-0.019955412437047834,0.5205268630088139,0.25791904126102716,-12.550641609598989
3.35,-36.54021524322979,0.023159122998753653,-9.808566053707667,-0.0010983875672876393,0.0005181735810900989,-0.0007865619690278232,47.4501505649116,8.550000741473879,432.0,24.133945046702188,3.388061487752688,-0.24863197362314082,-5.386528687188374,0.8604258016730054,-0.04073070528578397,0.3755277569405787,-12.343478129984996
3.36,65.34143530246486,0.006106518143621783,-9.810634067988486,4.8084637475595005e-06,-0.001102038100070817,0.0006443163513370148,47.45015099778152,8.550000745858743,432.0,24.255242226578808,2.4530675662015033,0.15028590622663907,-4.422965523865948,0.7100867706945602,0.5214949990558985,-0.6218286423532892,-12.919547292724513
3.37,130.51014119804142,0.011682969384331875,-9.810717285917663,-0.00012814484507119272,6.019360910685913e-05,2.9320672637342835e-05,47.450151548015526,8.550000750256162,432.0,25.960928103993822,3.5208237501398174,-0.5601829155318314,-2.3434207776969904,1.063264775800457,0.3947675709167437,0.09301409770161956,-12.429874496066878
3.38,-53.297356490453105,0.011764231996389426,-9.79893659961332,0.0010351261575178537,0.0011527810521559897,-0.0003424657700546534,47.4501520503366,8.550000754666131,432.0,25.3730352609357,5.468441874099016,-1.2129929950329634,-4.756541638236239,1.2027677686644718,-0.6980535865615151,0.1702066788792748,-12.681500506203044
3.39,-106.86316474763717,0.009846950152801306,-9.793144697443802,-0.000432224057942536,0.00023594413214367578,-0.00020541773615764418,47.450152456565704,8.550000759088643,432.0,25.374390435457315,2.8176249502173523,-1.131241554306349,-3.7744390960131615,-0.49451246649169045,0.49253807378948183,0.6036267036366251,-12.116435743659359
3.4,66.00307313659643,0.010817087376100966,-9.811961449018469,0.00013811440366381375,0.0005509192621701524,-0.0013579066573452606,47.450152922151254,8.550000763523695,432.0,25.624237902414514,3.68207887722982,-0.14080974535067958,-3.145532066924081,0.2592685060716032,0.5545282167712098,-1.019552565357899,-13.425636141215534
3.41,10.018803375873146,0.0024051520014237906,-9.808400693670363,9.739315567990436e-06,0.0002953405211618381,0.0006682421773463557,47.450153396745996,8.550000767971282,432.0,24.5749010903993,2.4993882329618167,-2.655984201446821,-2.896722972619501,0.46863942894923183,0.8272386764040587,0.813609473296177,-12.390828109652286
3.42,-19.697427689431485,0.006945848830313774,-9.808303813948891,-0.0008170254770622672,-0.000581272409135731,-0.00022060314371089614,47.45015385362711,8.550000772431401,432.0,25.09316593718738,6.039634968800615,-1.1863701332077887,-1.6546462598691614,0.30657916591709466,-0.3106643670634513,-0.5950691419913473,-12.601101241333511
3.43,48.21834403516704,-0.008021223053164068,-9.821946207053971,-0.00020555925572228714,-0.00010694445401577797,0.0011561570516573025,47.450154353871696,8.550000776904048,432.0,25.680088266814636,4.542387451532794,-0.43567899582193315,-4.0635172946560845,-0.6324697537156049,-0.1684765865022823,-0.36559544058637383,-11.654307750462092
3.44,-5.218101964016338,0.01270738156355273,-9.822932198431182,-5.2221929338340665e-05,-0.0012186158863208435,0.0007202359697278909,47.45015484942551,8.550000781389214,432.0,25.38054303281333,4.295391883068721,-3.62986823254957,-1.1158111867303746,0.18404020623913142,1.3261269673347773,0.6923770548195589,-12.361665639631108
3.45,-50.87637815808063,0.0002684724703444878,-9.809962421913278,0.0014495230207951077,0.0009683935643661907,-0.0009165806789682374,47.45015529920634,8.550000785886901,432.0,24.57532916855921,1.407881170484095,-0.5920866552365537,-2.1997822233126056,1.0587149848375996,0.16718352463546496,0.2968828733968782,-12.076421762401223
3.46,15.499662438200355,-0.0026453460354458596,-9.819470863154027,-2.646825129886297e-05,-0.0011675521438039797,-0.0011615986556282444,47.45015576293862,8.5500007903971,432.0,25.02270436977182,3.0374661794923097,-0.9783567865070062,-2.20373670132945,-0.4321207702142401,-0.06971178555326185,1.1359930516764727,-12.08375114719587
3.47,-5.360315205733715,0.011330068085160652,-9.815653087082188,-0.00113948037951578,-0.0013942760163266955,0.00018769772814578546,47.450156221845255,8.550000794919805,432.0,25.783237011731874,1.7519807810738954,0.15056895087234468,-2.8901015258569687,0.7664131353421124,0.9565655209786664,0.42107005944047465,-13.028403293071307
3.48,2.2534886002646157,0.0019165055856349023,-9.823167740480605,0.0006732835773159723,0.00045418950024596664,0.0002298957760627964,47.45015668278156,8.550000799455018,432.0,25.134736101368034,3.471786310296655,-3.981252157108229,-2.1867213801366474,-0.043836670194414395,-0.1923075085945586,-0.9576320664924626,-12.033395918633564
3.49,-15.950023522083997,0.012617475747815094,-9.817400748459093,-0.000866203338281921,0.00024316575165081526,0.0017769543397641654,47.450157129377686,8.55000080400273,432.0,25.704089344662183,3.7521903005575132,-3.8416841763427403,-3.513845256549815,0.2774084955928434,-0.39130496786500557,0.7427683654473707,-12.207083875217483
3.5,-111.99289450028614,0.005074955687797273,-9.818087053151626,0.002147407474011615,7.467740978885457e-05,-0.00028635275262683105,47.450157475252816,8.550000808562936,432.0,24.768835578139477,2.8913244603132635,-0.4467482877015656,-4.814862718124015,-0.22132904572681592,0.04818430413639528,-0.018625589974347184,-13.188840987582333
3.5100000000000002,63.68014819173611,0.00891890752872393,-9.803606572620088,-0.0010725061892859257,-0.0013129690754349985,-0.0012343202233377367,47.45015787839451,8.55000081313563,432.0,25.231214977161674,3.856761878657535,-1.564135851383641,-3.331575203910223,0.2935575153266696,-0.3785949890125197,0.8442089852973824,-12.64894848888449
3.52,78.23123733638106,0.006758321481555628,-9.811067707756148,-0.0013625890981218641,0.0009136850825711713,-0.0007641649426540537,47.45015835188311,8.550000817720814,432.0,24.709863039117387,2.031220856118801,-0.3776108604018704,-5.0160242591381845,-0.15719249933161264,-0.6115316684586004,-0.4315720827656168,-12.358536128104781
3.5300000000000002,7.497910207480472,0.003106571209713081,-9.79459177439559,0.00028270234894655234,0.0009813469699892269,0.00022394666313241493,47.450158832126604,8.550000822318479,432.0,25.26725617562379,3.014966041928538,-1.628774233990409,-5.154200535314618,-0.29523270124359235,0.16741681315346318,-0.17368904456796566,-13.222511002718472
3.54,28.589099965662605,-0.005583819594147046,-9.819370098799808,-0.0017454656903631634,-0.000765123168386686,-0.0005886478307311954,47.45015933808655,8.550000826928619,432.0,23.798554667035052,2.7068316457924153,-2.077728576459169,-3.417465442547004,0.2458198374821377,0.3116407735804757,1.1178473560649058,-12.526928791790615
3.5500000000000003,-81.39593663000647,0.020436269385451275,-9.8329665322631,-0.000552008103310428,0.0003517558939272762,-0.0007953928769496533,47.45015977084153,8.55000083155123,432.0,25.29085827405384,4.701625954857299,-2.173994989766171,-2.0197094492159198,0.22198616556110096,0.23206445578807863,-1.0006194158324788,-12.653456258498151
3.56,-48.040009038415214,0.01884534275996397,-9.813399608647536,0.00017903406645088094,-0.0006485295516976849,0.00036751138419764006,47.45016016038825,8.55000083618631,432.0,25.32893291825514,5.084940941719386,-0.9425212642639417,-3.3220916507747464,-0.226812302274525,-0.10750486752227094,-0.08553164113325437,-13.255741073503993
3.5700000000000003,79.25407955833359,0.009717645921379046,-9.81398956940161,0.0010695122194648028,-0.0015609742397075996,-0.000257919288699974,47.45016062120681,8.550000840833853,432.0,24.677054934139747,5.632309790987823,-1.8378817932618363,-4.491218310936743,-0.34276242096270626,-0.16558602549512427,-0.9219336881615818,-12.420552997964307
3.58,90.98027058319417,-0.0067830491183551184,-9.803005528091685,-0.00028485714761181065,9.574404110846637e-05,0.0007987198003668843,47.450161163837095,8.550000845493853,432.0,25.29330699494486,3.5398930558855963,-1.4878311421949233,-3.8562175104625185,-0.5647631494910328,-0.36033527670730475,0.08609004324674503,-13.066046591423696
3.59,3.5959848655465128,-0.0018292506661068166,-9.808113045599343,0.0008076299711630634,-0.00012139680432540012,0.00023265688544277387,47.45016170969732,8.550000850166308,432.0,25.603022256262097,2.0301405531163565,-3.2219930033460837,-2.270423318499308,-0.04472708927201233,0.40749544799434523,0.06472963342395428,-12.48924452025489
3.6,-45.34307278253441,0.0007837727042916062,-9.799733545130403,-0.00047635521963399613,8.479127529358489e-05,-0.0001748649350596937,47.45016221476333,8.550000854851211,432.0,25.21492544713886,3.1328822153885945,-1.0213925844331504,-6.343306477489733,0.6109670405028912,-1.299241727071051,0.10217369350849723,-12.604456579464046
3.61,-64.69312374213554,0.004779939087497233,-9.82833914042821,-0.0008468676433593329,-0.0006388435637339946,0.0012113287937525379,47.45016266165311,8.55000085954856,432.0,25.66366521403566,2.883199204157053,-1.5444396694944336,-3.673797157849995,-0.23922700816126488,0.2191684664021352,0.556802146778138,-12.388920561288836
