t,ax,ay,az,gx,gy,gz
0.0,0.010484631952220174,0.01673858697713068,-9.786325141332728,0.0004047170797544313,-0.0008399841062404957,0.0008504511958064573
0.01,0.0063537730607035724,0.0055471597978685285,-9.792389584992208,0.0010405647163912138,-0.0017510351886538364,-0.001202179506862318
0.02,0.04098638563611541,0.01040481652518423,-9.796379253233011,0.0002278404031672854,-0.00011624259234358221,8.31988424957112e-05
0.03,-0.026160522863769388,0.0010558285797644638,-9.798186478328478,-0.00075304392757358,0.0010793979748628287,0.0008777919354289483
0.04,-0.0022792189507652404,0.023852225974080595,-9.785055286789515,0.00016603069756121605,0.001327241206968033,0.0005675093422520456
0.05,-0.02364890463853745,0.017376636935895622,-9.818290733171539,-0.0007592924628832382,0.0005687507840824988,-0.0008588826008289989
0.06,0.023866396405319772,-0.004501504805023363,-9.784911855762086,0.0009784503013072726,0.0001500740890137471,-8.486236354526056e-05
0.07,0.0095018675679542,0.0020374633404065517,-9.782459520961982,-0.0005809295444039413,0.0014225413386740303,-5.4529482068802146e-05
0.08,0.011637684618399058,0.04239458726443305,-9.782171031759711,-0.00032832782216310724,-0.00015213355048822956,0.0006323091855533488
0.09,0.014943728715400267,-0.009190421276654485,-9.779032099525272,0.00046544406436407833,0.0006127326115959884,0.0005308210030078828
0.1,-0.010471821209426456,0.028002554592531054,-9.816336969185112,0.0022416476008704613,-0.00020641501638461558,-0.0004122427290715374
0.11,-0.006873173855268451,-0.02758265632070366,-9.778257125156522,-0.0007137727282478777,0.0008159794225754956,0.0012289722927208916
0.12,0.0015225301417865697,0.01871854616498523,-9.806161815707515,-1.3947457654875077e-05,-0.0006401564769625281,-0.0007244812156912395
0.13,0.02062950995059957,0.0165967324370724,-9.782414044233613,0.0007505927878247011,0.0009432541712034423,0.0006431542683051951
0.14,0.010617469977114357,0.0077439836653328325,-9.80486385022996,-0.0005655097072886943,0.0004321613230667198,0.00021668580914072823
0.15,-0.011505390725225743,0.01587745202528828,-9.794023820394345,0.00031868859672901296,0.00107142877794819,0.00032359554877468225
0.16,0.019067839247249023,0.03601976920018006,-9.795793150807807,0.0007789135630718949,0.00026757906948889147,0.00038911939868998413
0.17,-0.0020018073053255855,-0.001485664178438516,-9.7858705774938,0.0007312882258385404,-0.0012571558198556665,-0.00021967121635730133
0.18,0.022282776172101934,0.004432261887671741,-9.745079059917,-0.0003703726542927955,-0.00043887784824334195,-0.00017514225122668375
0.19,0.018416990299422262,0.0206164877894929,-9.787387208369081,0.001594941311234396,-0.0006658311156932433,0.0010682783545914807
0.2,0.030236624590575918,0.0008945410717283026,-9.799534473974585,-0.0015828697716158047,-0.00013488502998577486,0.0002627530651050056
0.21,0.02810689641387512,0.0038542290703856485,-9.781744706069492,0.0006862223313592782,0.000911226579792855,0.0008933472351999252
0.22,0.029637654616461645,0.007779669865932861,-9.789634974994703,-0.0002487250722484376,-0.0002623517926645672,0.000957975881257154
0.23,-0.000707926089999273,0.026233616976967144,-9.793484527921212,-9.13043248816149e-05,-0.0010756863233379217,-0.0010332872140034807
0.24,0.008977990370908991,0.010738153257461743,-9.780994295956752,-0.0008194522860016113,0.0006971607440537641,0.00024242573607056523
0.25,0.030273991554590415,0.0036036174911517923,-9.759122308307512,0.0007904853540677683,-0.00022725264633653423,0.00025853969107671426
0.26,0.005024864615846013,0.012415232692799458,-9.790325481316591,0.0007255903939673368,-0.00010934653972023838,0.0005567752375574115
0.27,0.05186279962554213,-0.0020127346136789882,-9.79185397147697,-0.0005619259410666513,-0.00016305384656507179,-0.0002817378939983291
0.28,0.012294819789344446,-0.00033546864779077784,-9.780360237203706,-0.0010958396455890396,0.0006869724807855818,-0.00036940234020272386
0.29,0.03458176504589929,0.007946088049370035,-9.78296460399163,0.00011249411872768744,0.000680746658905909,0.0005465311760299442
0.3,0.005417002389900412,-0.0051014728776569524,-9.78471940465253,0.0007653851089727864,0.00010151451549057639,-0.0003232983120441538
0.31,0.01015198479262583,0.028465234109445545,-9.805831558517658,2.028178909360096e-05,-0.0014873344339580298,-0.0013471124724230873
0.32,0.039090693908989595,0.00206369793073824,-9.783679306294749,-0.0012226996123544023,-0.0007972468276014817,0.0004997742267234366
0.33,-0.011296730249945488,0.016238736714420478,-9.80585952764788,-0.0008054790553600607,-0.0001781625540393897,0.0013992282977860655
0.34,0.01746780592543392,0.010513988151599474,-9.793162422195655,-0.00025626397106142594,0.0009375155684670865,-0.000833617680009877
0.35000000000000003,-0.031305485949163964,0.048212493713740034,-9.8077338279172,-0.00010543755786763001,-0.0007500220549105812,-0.00023903307590056251
0.36,0.015454936804656236,-0.009596121041066372,-9.765689932250321,0.0009403081374573956,-0.0015273204231923485,0.0005344236435458574
0.37,0.0024102732930620695,-0.010039495470620795,-9.774746865587403,0.0003377356023322779,-0.0003941499556967945,-0.0013460578543884546
0.38,-0.015439142137470904,-0.00326557223581662,-9.77284509698611,0.00017212950771386951,-0.0003294927090638025,0.000332676211354704
0.39,0.04013685222770591,-0.014248231072396166,-9.79888117721673,0.00012185214552344289,0.0018017788913209155,-0.0001393556274730243
0.4,0.017042753509887886,-0.03494846201142948,-9.759497517126533,-0.0009234974926218649,0.00037927563495631614,0.0003199966839717652
0.41000000000000003,-0.009989942029416913,-0.00374819855252831,-9.781433112297174,0.0014591875752404367,0.0010351112459145786,0.0004568710591495093
0.42,0.011024732968921282,-0.014272320252358445,-9.752220822071347,0.0015633028912195618,-0.0009887630543228508,-0.0005397515327497477
0.43,-0.041502649815531194,-0.01744015247055095,-9.799385496732475,-0.0008265759414055249,-0.00018980980315576798,-0.0012766861475563087
0.44,-0.008994091520946055,0.02939107119169627,-9.819816873887111,0.0007351509468144044,-2.2222697098773364e-05,-0.001370806294502658
0.45,0.04114926064245179,-0.0005626740657090849,-9.813868853343992,-0.0009155790812075415,0.0005135138474501953,0.0009381265678943812
0.46,-0.032018076280385985,0.0006973882244873681,-9.800689402142355,0.0020967308916917866,0.0031138624660073297,0.0005144094332759964
0.47000000000000003,0.01472989648467633,-0.004011445552685774,-9.76753394658517,-0.000889538120031864,-0.001932046280731309,0.0003677114623438358
0.48,0.007150176087228894,-0.0034781688345346803,-9.767184914164654,-0.000712941095310326,-0.00021535726017968534,-0.0005120967990598081
0.49,0.014563390268801636,0.020492633404804575,-9.763676785658067,-4.079088641638526e-05,0.0012659802307876437,0.00025704856744534463
0.5,0.004123991557586304,0.005764957566681449,-9.769773921136311,-5.86348370386883e-05,-0.0008356537528258116,-0.001574682944704357
0.51,-0.03901312005532122,0.0029646529022033415,-9.791147347067087,-0.0003863079090733309,0.0001462174491816795,0.0018679299135798831
0.52,0.017481048072882033,-0.011022197023764089,-9.76474105270826,0.00023027452147288585,0.0011827395110230578,-0.00039929559853915203
0.53,-0.004755260353931036,-0.0041803456856103266,-9.7999381992778,-0.0010849437664170246,-0.0007651167622323719,-0.0006252260645357531
0.54,0.03459763692480554,-0.036711535200105026,-9.750912400396611,0.0022284697324351645,-0.0006213866792243862,0.000938489203736345
0.55,0.03946741084201937,-0.00629730674811256,-9.76611152449994,-0.0008029271780870264,0.001131573012874244,0.00048495096610586317
0.56,0.012601796716511932,0.038058226896692735,-9.767636925849034,-5.6637897658090404e-05,0.00015923747386456597,-0.0005547876954293903
0.5700000000000001,0.05386289149252708,-0.026242934199305065,-9.782823092906996,0.0005460722014820806,-0.00025498348034078003,-0.0011256057637672482
0.58,-0.024482069863245658,-0.005374273965540342,-9.741656944010497,-0.0011779375743196192,0.0003725879177221195,0.001679091256410435
0.59,0.019364009025227325,0.024690823399118506,-9.776371227460722,0.00025999161357343826,8.136167389011744e-05,0.0003858261396025429
0.6,0.019009234863841394,-0.005446958502381906,-9.80082284800247,0.001406001741706825,0.00041938250136385635,-0.0003109272308337372
0.61,-0.0009831533598414176,-0.04960788107328183,-9.788290771478895,0.001206288710059889,0.0006287564384616135,0.001635755991995992
0.62,0.014797000450343233,-0.007384400519021774,-9.789263635386774,0.00028323443722190613,-0.0010244690317205002,-0.001268159199245665
0.63,0.020500973328800676,0.02269604738208286,-9.810606193945441,0.0017509279322312497,0.0019236657207832972,-7.951921328260064e-05
0.64,-0.005895514824831969,0.020059188719424317,-9.77486985566147,-0.00028318732113598777,0.0016614442922422022,-0.001007045682043488
0.65,0.03688797500747788,0.03105850594510547,-9.738352536705719,-0.0007947270189558263,0.0008433267946890444,-0.0002946051228595896
0.66,0.004144682649543068,0.03657128007635159,-9.80505029407906,9.487813327992871e-05,3.655710147548743e-05,0.0004375745487989336
0.67,0.057881056949326055,0.014093937983902068,-9.77580960074479,0.001507481861313717,0.0002905849069017456,0.0007439387932768579
0.68,0.029798512415240508,-0.022107265926822803,-9.808145102352713,-0.0019501721010310223,0.00015128159806988205,-0.0007432302702928711
0.6900000000000001,0.012313472247870716,0.011914391401565052,-9.74499892157526,-0.001118813060423628,-0.0006781523669287508,-0.0002341234407008121
0.7000000000000001,-0.008983997904286592,0.035803859697312534,-9.791961785110223,0.0010159025423560131,-0.001126392717739564,0.00013063149259441744
0.71,0.004409519664168284,0.0017231429498386942,-9.792755542786617,-0.0003841694333335785,-0.00012767309436196084,0.0011027578253046042
0.72,0.019730766519716645,-0.002898861628315809,-9.81485914393863,0.0006381154370039261,0.0015373981074427439,-5.4505679249900474e-05
0.73,0.0046438116752108875,0.014132779913062318,-9.814696560076758,-0.000595942611670703,-2.3858816880499524e-05,0.0003424967912712216
0.74,0.02163659992320905,0.028610392820400003,-9.757051383603578,0.00027657335845371106,-0.0008843880722333666,0.00019048978162787423
0.75,0.016753279872864683,-0.031093012905832173,-9.773697599957492,0.00032822833013890516,0.0027174740375339205,0.00197684461128167
0.76,0.029343426535726115,-0.00893068343771785,-9.788103658967772,-0.00075324335055882,-8.738336154917611e-05,-0.001363442001837003
0.77,0.019671989020897312,0.04074520905648958,-9.791766993744117,-0.0004907070139634865,0.0005156050035903405,0.0013058536208882337
0.78,0.02782511784889969,0.011325952474495462,-9.782661449392922,-0.0006290838377436085,-0.00045414644006779655,-0.002047289029738655
0.79,0.03660938955292879,-0.0116284457393975,-9.782041871994087,-6.266592054490767e-05,-0.0008624144118595632,-0.0004294394273660738
0.8,0.010543705566174068,-0.025138399152085412,-9.761998333290801,-0.0007768607781675882,0.00010573744574744302,-0.0016577283913566314
0.81,0.0265803435300334,0.005677588091363428,-9.79187757988711,-0.0013670452453909906,0.002329247112028298,-0.001187422581274031
0.8200000000000001,0.010004438190847655,0.019147431510018947,-9.785592097382644,-0.0009967855784546397,0.0020369135283213142,0.0030050671692404066
0.8300000000000001,-0.0033500068626726963,-0.005341591471962324,-9.786892487445126,-0.0010715666288253418,-0.00016824895678803052,0.0004415555509405095
0.84,-0.008651863057657307,0.011666474642044681,-9.802510325313742,0.0018286976444055925,-0.0007868570784282375,-0.00014527784594210974
0.85,-0.009086761789243796,0.06886264075603393,-9.74785297180855,0.000877337576061744,0.0006347660744666187,-0.0002761560712300993
0.86,0.012878900820398331,0.022020325346194056,-9.766231039249583,-3.3822964516041134e-05,-0.0011748958083699816,-0.00013817374397466525
0.87,0.008491123776263737,0.010655115060465245,-9.791893408741652,-0.00016638749000895512,0.00043216988962625595,-0.0004553272188190161
0.88,0.03511340819469898,0.03038866054158238,-9.755411622426156,0.000571538522545139,0.0012127158178198286,0.00025542932766846603
0.89,0.015319971395175026,0.04835609936175621,-9.788177022195153,0.00045175640839920344,0.0002531553475778674,0.00010008439309141418
0.9,0.05093860966188435,-0.0042659942539442055,-9.812598806211383,-0.0006215580335428473,0.0005164942616733081,2.713401586510532e-06
0.91,0.050556160540421016,0.01820754244978739,-9.776267549928237,0.0021931683089305948,0.0017733549024752425,0.0004858465525565008
0.92,0.0027903080811773374,-0.011902981749992991,-9.801655033492231,-0.0006630572096947675,-0.0009124114719834181,0.001291142953088865
0.93,0.012770945684920376,0.001995986711012046,-9.825461599557238,0.0003627492251471385,0.0006801434033916108,-0.0016445859869741925
0.9400000000000001,0.043875184265314525,-0.0033942293951264727,-9.761881810262018,0.0010274384815581808,0.0006544203382143629,-0.0010104306844144779
0.9500000000000001,-0.004112961310112984,0.008096850204584102,-9.767203773808689,-0.000371524807449949,0.00046371720435651955,0.00015246679835624364
0.96,0.026686918454269647,-0.00035921311537187844,-9.776464121759103,-0.00019217118580355504,9.651173193403915e-05,-0.00015197737820688538
0.97,0.02351893337989163,0.0020414091485469886,-9.808924365846767,0.00025256251210246857,0.0016714919729931572,-0.0024666584409312976
0.98,-0.0024913391889585263,-0.002584578480792823,-9.78612882441489,-0.00013685026450968422,0.000376512421372447,0.0003959939896870995
0.99,0.041847608962158306,0.02314964869846525,-9.802971275146053,-0.0002719145813212899,-0.0015567217824785824,0.00042799548371410964
1.0,0.04673044590160232,0.00342340649695145,-9.773204286746664,0.001827350214164185,-0.0013338614049161375,0.0009638280136981883
1.01,-0.008779736894165615,-0.0040447333858228416,-9.765891230986373,-0.0002285252231228939,0.0001386756541711527,-0.000952898510703949
1.02,-0.007577447918392566,0.006103425779569854,-9.777231785040563,-0.00023445617235587666,0.0015000445946989586,0.0006826552419877071
1.03,-0.010458736006725861,-0.030550630460596865,-9.768502311004397,0.0018323116054099443,0.0013774118889776938,0.0005390866789295762
1.04,0.06726765152644455,0.014177323580808414,-9.773635059234449,0.0018439345261677923,0.0006389931587382988,0.000927988176797059
1.05,-0.0076814441456007476,0.03439349444989603,-9.794185321709744,-0.00019657095353470836,0.0002665458158592048,-0.0005974238233002768
1.06,0.03327434643040631,0.017145953224194734,-9.774016061420387,0.0010895839345948532,-0.0009783036231148655,0.0008823503424176613
1.07,0.02186612351206587,0.016228702575833066,-9.78098219543987,-9.065105750515944e-05,0.0013712470934673195,0.0008508689887312599
1.08,0.029385261247444318,-0.009520975268659436,-9.791426407409828,0.0019206461576468017,0.0009307746911386448,-0.0014720402556532407
1.09,0.03936176793724404,0.008458127067795012,-9.79316879644751,3.304682710179917e-05,-0.0009720071925948158,-0.0004182798423662747
1.1,0.03069738756006793,0.021748625710712514,-9.812646387433613,0.0016112284332767217,0.000837533810897696,-0.0005989304285787463
1.11,0.024598630615905136,0.007746753660207437,-9.772411969041347,-0.000913717366440399,0.0002327820928762608,-0.0011165601493811279
1.12,0.010214096523899902,0.014286017941024267,-9.823269983843131,-0.0005711402773965811,0.0005120094715512439,0.0012553120361066962
1.1300000000000001,-0.007898703198259036,0.019802023313017617,-9.73422127304573,0.0007087614722244398,-0.0020912895085981,0.0004043667290302598
1.1400000000000001,0.017345505989969992,-0.008856093953098169,-9.783941795504976,0.00017203357323257793,0.0006138902853726931,0.0017162096816512073
1.1500000000000001,-0.00786848571721554,0.029996467952657195,-9.785688403903544,-0.001963238276804743,-0.0003911034251911056,0.0006909063227933547
1.16,0.031064160685207398,0.0019309005511826812,-9.763810789134816,-0.0014815943994539423,0.001675949048053509,0.0004683566127006584
1.17,-0.02247190802883968,0.0054895593719015215,-9.775858227472186,0.0009465839858434041,-0.0003709436615217946,0.0009137636899662106
1.18,0.004632982480420013,0.012190200904516814,-9.779799119536559,0.0011684715559890384,0.00043287802013716834,0.00033440089269869594
1.19,0.03097666720137976,0.017430527735892647,-9.778791437554318,0.00037034323928172586,-0.0006633452647393818,-4.7528680240352934e-05
1.2,0.02758927296841389,-0.022061035514798422,-9.801698198363997,-5.25225324523588e-05,0.0005833938643534951,0.0010998242469102946
1.21,-0.01770518126518019,0.01597203766703244,-9.778373721650073,-0.0009585360819784094,7.499096968042237e-05,0.0015814555476589733
1.22,0.03770590140726124,0.012033319712209539,-9.799284029109655,-0.0006435882288125641,-0.0006222500172903204,0.0003023061918311936
1.23,0.012680016235782906,-0.03250842796870522,-9.794814525511175,0.0009443851904853202,0.00021142605556065934,0.0014289605904369894
1.24,-0.03694205530109107,0.011570412782794014,-9.792235968858638,0.0009567939825665269,0.0010418200668900618,0.0006541165013240934
1.25,0.0073544865515556175,-0.013631683912039526,-9.800027130788205,0.002427653100346085,-5.161688866044177e-06,-0.001903522292066514
1.26,0.023852327817778657,-0.0237213984570704,-9.7765362462048,0.001704254361517141,-0.0002576994309568257,0.00020788044434303304
1.27,-0.006224440539072533,-0.02862005157336715,-9.762123122317686,0.001409550684860527,-0.0014022595410589252,-0.0011516472141061395
1.28,0.036583615126895695,-0.005789358031976422,-9.797635497910687,-0.0015012779371188537,-0.0005941362900254239,0.0005396366060169936
1.29,0.00498250735948867,-0.011201306030535717,-9.799326947062745,0.0006241878428127711,0.0004762741793285538,-0.0013127658838923664
1.3,0.019001219100516657,0.04647787572813601,-9.793744195970843,-0.0022101034366326443,0.0002543535853903823,-0.00037177603363833576
1.31,0.03046208383655022,0.012057838003363155,-9.820094704832298,0.0005593857717166118,0.0009019536262212701,0.00023824143205868195
1.32,0.009511278406354465,0.0019989575387799885,-9.75735924020503,0.0008601330853758539,0.00042921137411506844,0.0006300647056014667
1.33,0.04010306768359293,0.012535993854934507,-9.762364816251157,-0.0006046732628698823,2.0388586168541476e-05,0.00029677609665695724
1.34,0.007072798666351628,0.0273871208389736,-9.784643250684612,0.0009205284754174189,-0.00019374117222457213,0.0006211672557321127
1.35,0.03195349252247488,0.02898820708790701,-9.772320984383422,-0.00016583879191537905,8.245783267186965e-05,0.0009295190420240731
1.36,-0.004831757312265086,-0.003410878450048141,-9.771604893752063,-0.0018930603710541557,-0.001096472328074761,-0.0013821853974428208
1.37,0.027869208074492946,0.008167802809444407,-9.792895822580801,-0.002233616119848305,-0.0004782644401551768,0.0008494338997277405
1.3800000000000001,0.013827775602584337,-0.0005695133975036825,-9.792108229546667,-0.00018488406638257474,0.00039779008194185215,0.0011892174967107927
1.3900000000000001,0.04920066932550128,-0.004509740252611752,-9.776494230535487,0.0014276861322676917,0.00013086206527386046,0.0014535858895693974
1.4000000000000001,0.013058485355346486,-0.019530943171746414,-9.811870364966264,0.00019212665843410922,-0.0006373982238274622,-0.0004944003521987352
1.41,0.008377651480190942,-0.03405389543048063,-9.750041884464927,-0.0013805365125650162,-0.0006881338537336524,-0.00025801668807442916
1.42,0.002767705792874532,-0.0038638314190638295,-9.762188725547045,0.0009035850193786016,0.001920769831165984,-0.00128218151537704
1.43,0.007185611242687816,0.018020863472781107,-9.798101692271135,0.000492827468259919,-0.0008405439391575344,0.000574697088463202
1.44,0.010908668744614304,0.02436956314259706,-9.80388626542603,-3.108665068772661e-05,-0.0016309058258475303,0.0010282969915684844
1.45,0.020554701992755345,-0.043330230774934066,-9.761339904552397,-0.000505000712808731,-0.00033390023837355466,-0.00096975241128969
1.46,-0.0011283280092858616,0.003286850360938927,-9.788609072189505,-0.0005542832766875555,0.0006278904406949173,-8.924434093640552e-05
1.47,-0.009497136050789843,-0.01603260671524133,-9.776223109740593,0.00042866200228248107,0.0005619218539288437,0.001420661655528167
1.48,0.021366709667013255,-0.012705469491729009,-9.77582872538549,-0.0002427861508643793,-0.0012768578168457318,0.0011672224165719832
1.49,0.021157883501457357,-0.002564381943128088,-9.812519908717027,-0.0002314881720972547,0.0013145924445773771,0.0004833771131824704
1.5,0.009249133730645924,0.012301637763132528,-9.787827300819632,-3.113753020334493e-05,0.0005487758940462952,0.0020510125601262996
1.51,-0.0018498812747407088,0.014339387974404115,-9.761343509970363,0.002176980529053753,0.00026938113513277873,0.0002601905933170753
1.52,-0.005405937288073748,-0.0009601505539812115,-9.731787147974412,0.0011762401574663857,-0.0006456610327673472,0.0004330703726182551
1.53,0.01581735326167119,-0.02033613834174367,-9.796201651550412,7.41371520461436e-05,0.0005139082114575536,-0.0007333688059494057
1.54,-0.005138415817210399,0.012607864375899565,-9.780495456512353,-0.001489567493308969,-0.0018729834359912916,-0.0010173841129896078
1.55,-0.0027297437040208466,0.042126219808248225,-9.784947333486349,-0.000358675284939333,-9.319158664876183e-05,0.002037231162429517
1.56,0.0008853992766651372,-0.019422435563399117,-9.804545308392356,0.0012059933699072982,-0.0007620911163416273,0.0004477084524509569
1.57,-0.014920476397547932,0.001188638897568763,-9.804349273521362,-0.0003070782363503251,-8.436383804009514e-05,0.00028532564941538205
1.58,0.0256796799329152,-0.006688642761480355,-9.769845980167254,0.0007191711169753934,-0.00013925848388401536,0.0011638515327343586
1.59,0.019829346554992668,0.01791015098688152,-9.768715018898474,-0.001041938226142404,0.00020633906236226844,0.0026976737265958324
1.6,0.04986646891128496,-0.011979947736751782,-9.769730014465287,0.0003230797426252751,0.0016332145066061728,0.00019152017817320818
1.61,0.017962379861775086,0.026265609343618324,-9.784434049479039,0.0006807770953297968,0.00014321680560730848,-7.040758116420443e-05
1.62,0.03352022607071753,-0.0208320626776165,-9.806736171415105,-0.0006794823967254196,0.0006303013589575532,-0.0007515371891857679
1.6300000000000001,-0.001384204824409074,0.003505005766779817,-9.785722880660934,0.0007655852363134292,0.0012852870044459102,0.00046653140723722995
1.6400000000000001,-0.004800545316828447,-0.01481744974565792,-9.799755802763231,-0.00018624873355569185,0.0006539655793086961,-0.00020867305554641262
1.6500000000000001,-0.02418613450264811,-0.000762698638925168,-9.78781812785523,0.0010355471254651493,-0.0016314060842151235,-0.00023560736811864622
1.6600000000000001,0.018820728993983068,0.008337434368292474,-9.750782036978437,-0.0018908119951239978,-0.001295060830227205,0.0014638622298139095
1.67,0.026247466872024866,0.01974626705886152,-9.779355963990191,0.000995184981971686,-0.0005194802332847904,-0.001402503456040897
1.68,0.02071450349040889,0.0005852060057382679,-9.784657568426287,-0.0028645288378416514,-0.0003434955079326346,0.002520415012247402
1.69,0.048431141492341685,0.003598908610633221,-9.81328730115211,0.0005348842714636474,-0.0003595722860494895,0.0005650802095003062
1.7,0.023936159161158047,0.022504173156482128,-9.783559531382654,-0.0014609583529944428,-9.732336269763542e-05,0.0001994774730157385
1.71,-0.0275669090241007,0.0307321278581548,-9.78205186547268,1.3899348178951501e-05,0.0009908061216900806,0.0004446452262360524
1.72,0.0037948307872598397,0.028761182712066354,-9.82714276916827,0.000768326018107997,-0.0004883722822307594,0.000997815408410548
1.73,0.012237224557661094,-0.005815866472219056,-9.75680707533127,0.0017289369476239916,-0.0007701495196514126,-0.0007876956557145597
1.74,0.01485765799189108,-0.012293094230544751,-9.763885305617942,0.001435784336320233,8.65601330493973e-06,0.001503821392066557
1.75,-0.039180642271463534,0.01515803418747515,-9.811915831638835,-0.0003425357118921839,0.0016550455762707114,0.00023148581680545218
1.76,0.0007512471468789934,0.00018645344112576574,-9.768447752027722,0.0003582288233226952,0.0017647180216699046,-0.00026177047744417126
1.77,0.05406822690788876,-0.03059105892792428,-9.777723915326703,-0.0008411220959249583,-0.00024856420802835436,0.0005523339506431388
1.78,0.054049122539973384,-0.006458593734185755,-9.79934998063445,-0.0014657590721805142,0.0008374709026511215,-0.00043877131761774327
1.79,0.014718924908886027,0.021576700251522543,-9.773498039188318,0.0012478126607335636,-0.0021942603049004716,-0.0006865657751041687
1.8,0.0028259579800493304,-0.0110507392567601,-9.760327401109251,-0.001586468151234102,-0.0006262294663639526,0.00034766590110894315
1.81,-0.005491415192789442,-0.033323701114568345,-9.81571791039245,-7.922662544975491e-05,-5.3377568948014936e-05,-5.918487138006078e-05
1.82,-0.0015227964930915258,0.034850110568241964,-9.810417240948919,0.00030338824061994343,-0.0008085360419431078,0.0008068496408990508
1.83,0.04043836331828667,0.031136377989279228,-9.782145376898457,0.0007626659703854839,0.000585037937656101,0.0006565334427512632
1.84,-0.040981884964456046,-0.01868118624334271,-9.799320725067695,0.0003964180008086595,0.0022350733027310674,1.2905828947490104e-05
1.85,0.04461403484800991,-0.006383356977488582,-9.802108643401112,-0.00020708321833457676,-0.0005535275803573779,-0.0009322626705778369
1.86,0.01376603904200033,-0.023190513195987642,-9.787142429910972,-0.0011444717876010753,-0.0006887973132309185,2.9319618347928696e-05
1.87,-0.005971146845943584,0.05875499560586172,-9.805002477865994,0.0004342951284977145,0.0002511420585521618,-0.000665535277429713
1.8800000000000001,0.048598693310647506,-0.017803340225372482,-9.781394491656872,0.0010001845640199632,0.0009394126723009476,-5.964830742201698e-05
1.8900000000000001,0.020006279997450367,0.007835291553794218,-9.785041984247226,-0.000552916144664712,0.0007484279208297995,0.0002879735874861045
1.9000000000000001,0.027229130682090673,0.013347359015086078,-9.790108047317226,-0.0013481272594150476,0.0001320197440155951,0.000362035812074381
1.9100000000000001,-0.0034886646810964855,0.0016851464350778273,-9.790211759783771,-0.0007996947864877538,0.000389843392837443,-0.0013548224852577891
1.92,0.006044702120754607,0.006523990451907669,-9.81483644228352,0.001436186100012171,0.0014479499850594318,-0.00015251733430296478
1.93,-0.0105515743057538,0.021635475265954208,-9.831658357845306,0.00046345433783907315,-0.002209921965799875,-0.0010563476602653329
1.94,0.03394064021399677,-0.006178413914791239,-9.753260564087421,-0.0001937789201521298,-0.0008721330214268593,0.0008143964826306589
1.95,0.034524310911110696,-0.0015479987140825076,-9.791124327901647,0.002097296530747994,-0.000976614719429302,-0.0007374634040851927
1.96,0.04186521691569201,0.03046468516867809,-9.76719519616314,0.0003354483683099303,0.001811116148499621,-0.001122374312539903
1.97,0.032883824927105086,-0.016750438121005587,-9.782544053996359,0.00034903612230694197,0.0020212988508131087,-0.0015517591481792672
1.98,-0.005407534032701111,-0.017264590666127216,-9.783372245026301,-0.001181069206845832,-0.00022360660646083823,-0.000420588412855411
1.99,0.0017231483083226026,0.0016750072958737743,-9.796650701562687,0.0009126012877536447,0.0004416597198208381,-0.0016749620596421284
2.0,-0.015089542279668097,0.03893586186593621,-9.783533469451575,0.000615410402900811,-0.0003775388873556505,0.001374447216941239
2.0100000000000002,-0.01884387152070012,0.008639418268566672,-9.756222204053385,-0.0005275875364369197,-0.0004366152831022358,0.0006411316108045315
2.02,0.029174549626701872,-0.005374448522128857,-9.796544149823607,0.0008629264823369366,0.0006480993639362036,-0.0015855973173848081
2.0300000000000002,-0.00914151126309582,-0.009845076749277596,-9.799867722218636,0.0006380344399282512,-0.000834308051674399,0.0003352761115882635
2.04,-0.019365435009346003,-0.003879602184477293,-9.779770428470496,-0.0013237344353990601,0.0006463221475430637,-0.0007065989043073726
2.05,0.001720060314965863,0.009347067877466385,-9.754211335457597,-0.0011826346502605218,0.0009138201364823995,0.00034164452167675133
2.06,0.04671330641717213,0.0036414575044384292,-9.769046356631447,-0.0005139768013928971,0.0016511788490210643,-0.00034065242156974243
2.07,0.006667072113273401,-0.0047574789551592485,-9.808986508011573,0.00013210767397093466,0.00046891344767860095,-0.0005196659341286135
2.08,0.011732247451262001,0.026687645642466496,-9.81213839817976,0.0005711362933999293,-0.0003334523471647245,-0.0003116383222162092
2.09,0.004258127208917826,-0.0017068316162263944,-9.781712422389,0.0014626426398033413,-0.000840586052512433,-0.0023127803309294904
2.1,0.0152553138844382,0.015744711568510834,-9.748710355279307,0.0017109369950118944,0.002749327952607003,-0.00030526926544933183
2.11,-0.007409916103669279,-0.01350904935821733,-9.781702689057887,-0.0018368380406201853,-0.00011048397619594375,-0.00018622294984066922
2.12,0.0390544707900417,-0.0242475595109032,-9.780022552781258,-8.992384102225703e-05,-0.0009133880419218483,0.0006795611424764774
2.13,0.005973228244532867,0.022085763397836963,-9.774086197769192,0.0006245073752860862,-0.0012944056198193065,0.0007991967316948879
2.14,0.010970336236304763,0.014750452862784074,-9.799815561072608,0.0021526849819458907,0.0003719603324370599,-0.00023732516206850606
2.15,0.026004485878290545,0.03273047062561507,-9.784646789818506,-4.20032144075213e-05,0.0008152567669685612,-0.0016306716055072181
2.16,0.0018409457640091113,0.0020969585145105708,-9.77085586728249,0.00026439070297730227,-0.0001904639494628101,0.0019478250129560456
2.17,0.009162680741562871,-0.018992869741323734,-9.767607904341952,-7.417273380495787e-05,0.00186788761111952,-0.0010037406977820072
2.18,-0.00965671183771214,0.013489880738604194,-9.823977237691318,0.0006872591668027922,0.0005194002637912288,-0.0007690472478647823
2.19,0.012163015759283132,0.003634078949130797,-9.825991349785554,0.00027739611463694047,0.0014125188368316005,-0.0002237917042866007
2.2,0.01665629013849116,-0.017027207132817676,-9.784954961418956,-0.0015919626491697632,0.0001824371735225541,-0.0008024230947925125
2.21,0.0017653139897338983,-0.024611128555639187,-9.807564520901058,-0.00024234093866388237,0.00011841223031487903,-0.0016056522160155173
2.22,-0.009313872731369655,0.02464825647126069,-9.769933689107816,-0.0015156583393206781,0.0006820668355255252,-0.00042271869616968043
2.23,0.05389002852704455,-0.005237526820034353,-9.797531318768128,-0.002464744341820567,0.000984844036608135,0.00037236975527423985
2.24,0.012697458583212464,-0.00210533261585437,-9.798301260799855,-0.0006138748240364839,-0.0011168302110582415,0.0009358078963143372
2.25,0.011088496979845685,0.01907217235674518,-9.82889282038814,0.0004493506225604296,0.0025826022826840734,0.0005201885987249373
2.2600000000000002,-0.0014440163428858614,-0.023055859474687215,-9.789726621895234,0.0004877031412620148,3.307206989143488e-05,0.0009167758672007911
2.27,0.01865260005290382,0.02733883654561329,-9.795324912157701,0.0007250852012481538,0.001451725008565195,-0.0004213229186372848
2.2800000000000002,0.012125451203780682,-0.028642494813951706,-9.803859316935542,-0.00033540747294396234,-0.00027910317091198015,0.0008908017211789892
2.29,0.014142839388901228,-0.022180288689052488,-9.761909758674381,0.001598374440296732,-0.0002588404931493007,-0.00032477372779309124
2.3000000000000003,0.02047032815677738,-0.013091631477549031,-9.81629327724834,0.0004140772238697992,-4.57615000129014e-05,0.00105205365313989
2.31,-0.004385945653950896,-0.012986400628259925,-9.810989954054287,-0.002151777290619047,-0.0006267050469168946,-0.0006824163339614458
2.32,-0.018136206144343817,0.00039199795580164426,-9.772004784199423,-0.002220356012386145,-0.0007636384443688041,-0.0008151561158459261
2.33,-0.004221644654196794,0.01389767055637195,-9.793204853346902,-0.00010110465451883034,0.0013129658916602638,-0.00014506065119070235
2.34,0.022246333831620443,-0.010729551793982946,-9.781030170650185,-0.0009308137202711539,0.000143045458786471,0.0011491736214413494
2.35,0.012402626166927814,0.03224638877948145,-9.77547513622133,-0.0008759588161149049,-0.0007105748839214486,0.0006585489592742235
2.36,0.015120142755139381,-0.02439776562660916,-9.797154966686385,-0.00012153611573080055,0.0008474846907094743,8.635320820470324e-05
2.37,-0.006007961758519637,-0.011444103413099257,-9.786339865938293,0.0008016636480895671,-0.0008350781140406409,8.791534921173257e-05
2.38,0.01481642157105581,0.010598822616545238,-9.761421122278524,-0.00011069001436315682,-0.0010158909241041307,-0.0014634779478686884
2.39,0.019670985279300696,-0.019557017395964372,-9.7825991823253,0.0007857490352746619,-0.0001509523822179781,-0.0009222802816473295
2.4,0.02168754868847201,0.030243780448578228,-9.789733832207101,3.8210630766677525e-06,0.0013280188573493027,-0.002180737845371923
2.41,0.0071106496099525565,0.026577931197752497,-9.783078332878691,-0.0013966386899033263,-0.0007228864418952676,0.001561178866720329
2.42,-0.021968166428913687,-0.0312574336635917,-9.749834461277397,0.0003825869829192965,0.0009673172404612269,-0.0010401609191262305
2.43,-0.02427455378537395,0.0016557621856141203,-9.76898766051155,-0.0010195358752705262,0.0006478137167227105,0.00015827433093544655
2.44,-0.025292142233699723,-0.016631212342330563,-9.811584810603327,0.0006487388188641266,1.2329009071547872e-05,0.000378143726454627
2.45,0.04602252604572353,0.04536308157751312,-9.801333434546677,0.00025811908490510916,0.0009777673890849253,0.0009070082819444706
2.46,0.021589965139942408,0.011161248461171669,-9.792265866060273,-0.0015198719943917698,-0.0020472685553408554,0.0011017453976515073
2.47,-0.022535529852424845,0.051149280323684446,-9.822970275512436,0.0012877250932619366,-0.0008206230195133376,-0.0017598354065456287
2.48,0.014242101422884915,-0.00795195413822328,-9.766488773585412,0.00019903482100720092,0.0011308382263505294,0.0018975945224343146
2.49,0.02691893352343966,-0.014576268360593992,-9.802452537282717,0.0006162975721014511,-0.00017171669658569495,-0.0007931306215848626
2.5,-0.021003027910317683,0.008896024419876214,-9.772432454384939,0.00011145129167065443,-9.926470388525637e-05,-0.000915067905728816
2.5100000000000002,0.0011667179701953106,0.00010391567308081721,-9.748493065719883,0.0021487556508632865,0.001985168402072131,0.0012360486835554284
2.52,0.028724752803192817,0.03195529450478024,-9.83149089329563,-0.0008208503978091276,0.0010550193242972788,0.0007396264094979019
2.5300000000000002,0.020943840812498893,0.010027448746017895,-9.811689706509696,0.000542545624204053,0.0014496652670437772,0.0007353711428612775
2.54,-0.010877957100749317,0.000631283911427606,-9.81348991064504,0.0008400142363043355,0.0008369062833722101,0.0004407914080021059
2.5500000000000003,-0.005974004727499838,-0.0042318610347386815,-9.775179615079217,-0.0016836111297141834,0.00028362107741055725,-0.00045619195884912526
2.56,-0.004136119711435944,-0.003944747932049033,-9.766163293981517,-0.0011798409576400204,0.001881816619300824,0.0018289953408857035
2.57,-0.02528517865956814,0.00954572801109025,-9.778861925734677,0.001459220600295612,0.0004552134168558747,0.0014506251209526568
2.58,0.018336574317644374,-0.005027095311968019,-9.807947258679686,0.00011205318060182555,0.00040279727689777943,-0.000993471370461983
2.59,0.040390295657520545,-0.012129908575726572,-9.808990592216459,0.00049699130449884,0.0002603859284244171,-0.0012026521168344644
2.6,0.010404024642618168,-0.0097824478408003,-9.765633921764723,4.88028881834031e-05,0.00012027043614319153,0.0018975611666446402
2.61,0.004696503235738399,0.028609470803319336,-9.777674506616838,0.0009942133285134095,0.00021144543909146603,0.000348787309801083
2.62,0.002235789607456691,0.027280334772832798,-9.799666740690698,0.00014421237810419808,-2.9139847955477122e-06,-0.0009824271973882868
2.63,0.0035971372719438835,0.015583182278302781,-9.78211750340393,-5.105187760692926e-05,-0.0005460982566525134,-0.0011503155389231464
2.64,-0.003473731269865596,-0.025727003907235355,-9.787022870069391,0.0006112218145475348,0.000591264659933235,-0.0016867075113680778
2.65,-0.004542364491869632,0.005592915139052511,-9.795069475105166,-2.2684637495127205e-05,0.0011957013858999235,0.0011592237388963209
2.66,-0.004351356634961681,-0.0003631234867681032,-9.788118488815083,0.0011258368428852387,0.00023891320690145983,-0.000745045327969151
2.67,0.023900191837843775,0.013463778718229649,-9.744761537455073,-0.0009836988273580606,0.0005446049047503575,0.000479280034365163
2.68,0.01282871917648317,-0.008458620183724501,-9.789975902783171,0.0013873311116050656,0.0012999796503420837,-3.222865653117211e-05
2.69,0.02136646530720521,0.025068513043125858,-9.759820598791977,-0.0011442058788608694,-0.00011910659701089784,0.00031723119481052466
2.7,-0.010340085880625788,0.030613479349384735,-9.78757041368548,-0.00010208324538940409,-0.0003778941080776559,0.0003528848149698989
2.71,-0.008539018251756179,0.0009244411624989516,-9.762434896520837,-0.0004039577414106105,-0.000428066083725374,0.00041145283430343957
2.72,0.01914551110347147,-0.019240869622230792,-9.810740868171235,-0.0003019925801292048,0.00044410438897835215,0.0003732040228521227
2.73,-0.01464590720136418,-0.00963076318261152,-9.785101006992248,-0.0010394290010915747,-0.0002812411238654122,0.0015377769399164624
2.74,-0.01252362315897662,-0.003566525581547076,-9.758609281259968,-0.0010620795127342872,-0.0019166544489705312,-0.0017618451532425115
2.75,0.0423561638748126,0.036009465871775316,-9.82254807537591,0.0001291099465766692,0.0002309172780326989,-1.761085542512093e-05
2.7600000000000002,0.04347444400186552,0.006833946480544299,-9.785090606155688,0.0013141898289285017,-0.0024728344331029378,0.0004959338744308236
2.77,0.030578063629663796,0.01906918265807792,-9.824023560806433,0.0016614382018035733,-0.0009277807648917141,-0.00027980651178989514
2.7800000000000002,-0.0022493239918696117,-0.0023213704434975778,-9.813255329139475,-0.0006528919172286209,-0.0006943460460775288,-0.00022626200502304
2.79,0.029943137415994407,0.03377859215748394,-9.786861240646175,0.0015274852836845048,0.0020373866754875205,-0.00023593922504014776
2.8000000000000003,0.015971856047037235,0.004774350294383608,-9.784666932425614,0.00200506021406447,0.00023557647698462488,0.001853691026701081
2.81,0.03235363942483529,-0.030309971054275697,-9.776927934327468,6.701350346508236e-06,0.0003310578260461443,0.00046547447264283455
2.82,0.01023707392078125,-0.009269434403531503,-9.796717050899694,0.0032788536793675353,0.001051285574844789,-0.0006072645299514636
2.83,0.04664740969487147,-0.02155001589131573,-9.79002114481275,0.001068997870275858,-0.00016183253708434148,-0.0003897501829012091
2.84,0.042589735614910036,-0.0204025948464214,-9.795773306206609,0.0010086013598921111,0.00023108558777115278,0.0003785759145118061
2.85,0.010846187688749063,0.013253205791537735,-9.78825624677028,0.00011398522186529247,0.0005365831266054348,0.0005249658974361492
2.86,-0.007907270783475999,0.013948050073777852,-9.788662055806443,-0.0018369669327054153,0.0008665726686095335,-0.0008820194198303007
2.87,0.022555121141107883,0.02347388144378084,-9.816374790918715,-0.0013422991355594113,0.00014158875614131758,0.0001839810033144543
2.88,0.03066259602884662,-9.258377848974514e-05,-9.77014578392156,-0.0005935061645722808,0.0010310318576679744,-0.001242175166370907
2.89,0.019877449299831755,0.04208164519683085,-9.786524918507894,-0.000306943748772559,-0.00038487413493300065,5.341272966066064e-05
2.9,0.0019336890437854585,-0.005259323127497945,-9.807391880734775,0.0003788642846472388,-0.0008078929496235448,0.0008242826774562282
2.91,0.026162039323470068,-0.01702838932347679,-9.770663435865393,0.00016300236833469975,-0.0016919462533119105,-0.0018585914403970308
2.92,0.005530053300789032,-0.030264505630595035,-9.756884568999304,8.768070707068877e-05,-2.096731778635408e-05,-3.4201135746334942e-06
2.93,-0.05751638685827241,0.0033648242082067424,-9.78197082594753,7.201754346978202e-05,0.0004255598395101807,0.0010476496098482998
2.94,-0.03612096015130833,0.013825075076747375,-9.800045758540307,-0.001011104900917558,-0.0009719715929007948,-0.0009933238578873824
2.95,0.005029625366250257,0.03186021229693147,-9.783795597570377,0.0003889166671687069,0.0014449473786464456,-0.0003313394382395105
2.96,0.0029887343721584246,0.001590808185098287,-9.751127930783843,-0.0024016998441596547,-0.0015039928626103755,-0.0007330367227960116
2.97,0.01809226442431814,-0.012675255005651982,-9.796416344383342,-0.00045772888749521476,-0.00020838862725472643,0.00013858112298091707
2.98,-0.01380142967975651,-0.004034202772093394,-9.754492129008069,-0.00021174633082244714,0.0012493396105434072,-0.0005760173056813687
2.99,0.006673325951833843,-0.021740257363393103,-9.778031451337496,-0.000762317959475543,0.0006788755385204616,-0.0014356420699261194
3.0,0.002148439242558203,0.016228201038978953,-9.791497975354424,0.0004896917053200023,0.00030255318372626684,-4.7442489918167406e-05
3.0100000000000002,0.03890540651643869,-0.01321292002791416,-9.809953244587847,0.0016882761071492624,-0.00042220744529471795,0.002160298170524078
3.02,0.02875200782642697,-0.03507111546763219,-9.790088657870724,-0.00012543144922809929,-0.001077016444970228,0.0001699195809948253
3.0300000000000002,0.026012284145487036,-0.03888792640751344,-9.785357138470973,-0.000976245200318768,-0.0005517558478135003,0.0004970333000154912
3.04,-0.019918971147676275,-0.0318968864654716,-9.807968822547453,0.0006555820886501248,-0.0004221677002542582,0.0010874051450464007
3.0500000000000003,0.006332150397021936,-0.009117510810217447,-9.764508665032242,0.001257507758021134,0.0016363017565632911,0.0006294134071257222
3.06,0.011647726807466263,-0.0047791220463373725,-9.812848077647246,0.0014634287120856987,-0.0016807984279740577,-0.00021790654862846256
3.0700000000000003,0.01448218178346879,0.04617797866876903,-9.800708329947978,-0.0007670052563234262,0.00031922586112739207,-0.0004714492191967373
3.08,-0.0017110358884720994,-0.016214292109858027,-9.76296641280595,-6.615784194973237e-05,0.0020821748802040494,-6.97197964203783e-05
3.09,0.02854011133406162,-0.003925420845443727,-9.798630883678332,0.000513792317190214,-3.22693299242352e-05,0.00017571328795683367
3.1,-0.008877062446899177,-0.0007862329223769504,-9.766252419437752,0.00010601668043607147,0.0006483240659731595,0.001265307535547177
3.11,0.010830500918991248,0.030752946063054024,-9.801053222054152,0.0017473939976033295,0.0005096200819091669,0.0006895468860356022
3.12,-0.03625434149603736,0.057106708668321675,-9.782358336388453,-0.0010508645091855669,0.00011212325758437943,0.001040289464883589
3.13,0.025570522449157924,-0.010750306238058598,-9.81390086278177,0.0009659686384171532,0.00041160973279505024,0.0009863939595679523
3.14,0.013094967807724112,-0.034833806692865434,-9.791991225223848,0.0005907667089938189,0.0014003062582593217,0.00038935915695711114
3.15,0.030446229143582436,0.013969414189867187,-9.781551959841439,-0.0002556983155710347,0.0005358412569330237,-0.002830594375852776
3.16,0.044874787585521214,0.012506837811743513,-9.824738520370598,0.00048288573638504946,-0.0034484128252147838,-0.0016234634074054181
3.17,0.007018598746702923,0.043506359079759846,-9.792838736109472,0.0005517686009409842,0.0006775293372667953,-0.0010624287801399303
3.18,0.04728192053399254,0.025472881809010063,-9.794819516444303,-0.0006121020418789388,0.001570540988614132,-0.0003840301315726762
3.19,-0.01160992653764399,0.011797874738430449,-9.76123999957338,0.002342920312402985,0.00019808014682365385,0.0005080361768812668
3.2,-0.02157276939325506,0.007407749735834618,-9.827477763246643,0.0017168743984986078,0.0003310271161934196,-0.0009023439806908012
3.21,0.0032081801233201142,-0.02809465624151417,-9.775405283830397,-9.727451694290109e-06,0.00016438926380990906,-0.0012647416522015653
3.22,-0.0037799595284793795,0.028160725446502548,-9.797459834472937,-0.0001558320713408234,-0.0005421920939974367,0.0010243577571874341
3.23,-0.002631444848335957,-0.027303310377470382,-9.778828999864313,0.00013461187418525563,-8.279574914757005e-05,-6.1819306225762615e-06
3.24,0.01984201902803074,0.023794887187984014,-9.773545973418996,0.00032312201840616615,0.0008168141996897798,-0.0008997122286693814
3.25,0.018025394659289914,0.016917023196053753,-9.772713376001285,-0.0009415876326212718,0.00130467921540253,-0.0003123368722047306
3.2600000000000002,0.02815313647127758,-0.025551444045621586,-9.795886361264802,-0.001316842092596874,0.0006438127093831047,0.000563369806032687
3.27,-0.022461147284668442,0.011642674828238352,-9.754050809993537,-0.0014307152572567063,0.00042948171546360633,0.0008355830924283736
3.2800000000000002,0.02792682726963635,-0.0071410507051617176,-9.7765417297678,0.00047438645170626303,0.0008319814837613953,-0.0013042690980907491
3.29,0.016978803555112457,0.009662593123252254,-9.812716916506433,0.0004310401549961956,-0.00010261975947044655,-0.00038279015872464485
3.3000000000000003,0.036302711860305606,-0.01856180631008867,-9.793984870628645,0.0009705556094197266,0.00167927451067423,0.001894370054600359
3.31,0.029182835425963914,-0.0024683245292474367,-9.78506396880642,0.0014148078715059051,9.026581836981632e-05,0.00045272016302634306
3.3200000000000003,0.012392121542933596,0.006318268057142171,-9.784348894563804,0.0008668228717842437,0.000321177949299462,0.0002307641879115444
3.33,0.014278374091066788,0.006494052424480871,-9.804559759789864,0.0009237531318761821,0.00014071735397406778,-0.0006292869363736615
3.34,-0.021000844013143824,0.024962578723774272,-9.765774424982975,-0.00031447306583585853,0.0008339103777337424,0.00010299329119995573
3.35,0.016749469647801572,0.011582456839835605,-9.804953763889943,0.00044020997686833785,0.0008700792422021898,-0.00027484146289760963
3.36,-0.03877170697227829,2.6230483736656984e-05,-9.824597043712902,0.0008562481636298061,0.0005788426034583945,-0.0011348130869114786
3.37,0.013687993925723138,0.0310847835543468,-9.798972771251956,0.0015423047911862443,-0.0003007447437569161,-0.0015550953431851839
3.38,-0.0011739079969050308,-0.015116552382657744,-9.785764959187846,-0.0009450437095863023,-0.000821045160678322,0.0001521733186575335
3.39,0.00933539352588381,-0.015382611139991845,-9.768398509301651,-0.00017385050554623722,-0.00013683196764059286,0.000719701965482479
3.4,0.06404739612429813,0.028797177032098924,-9.788862084433491,0.0004398753611927038,0.0005160478706442862,0.0005098284573286926
3.41,0.00754914927005376,-0.005271184260920971,-9.797333458655398,0.0007161346680022383,-0.0019079533417774431,-0.0002644382522644612
3.42,0.02916313285256346,0.025034139000376522,-9.810040590205618,-0.0020802100644894744,0.0002360599267977954,9.536702777565468e-05
3.43,0.017326308248481935,0.027222508218004676,-9.793653640397894,0.0011455322747896803,0.001387634392721121,0.00030277504825236735
3.44,0.0057693237086773605,0.01891965353295285,-9.77216164166286,-0.0004003610773968998,0.0006851611125457379,-0.0004279176373243135
3.45,0.01858116659184188,0.010084575104142356,-9.778878248123274,9.860734855665111e-05,0.001186136316960768,-0.0004577713459894236
3.46,0.004445654182972312,-0.017354320305739353,-9.817782289501496,0.000905678639242501,0.0008774013686923024,-0.0008547918171308215
3.47,0.021911228600177593,0.007163941705170065,-9.777539608319497,0.001073894128217401,0.0008985663453715051,0.00020192588737265744
3.48,-0.006577585830970975,0.007051718875035538,-9.785077199478636,-0.0006623234580276522,-0.0006592060185755701,-0.0004376625769030225
3.49,0.0355801463745586,0.022035098627514176,-9.801449209499829,0.00064259446329196,-0.000755625167401398,0.00053751224861987
3.5,0.020091058853592428,-0.00993782931615696,-9.8389095974311,-0.0011417555288783926,-4.0685844388489625e-06,0.00020964775457400864
3.5100000000000002,0.04451902124075467,-0.0024985950684604527,-9.765860737646891,0.0025451301450589167,-0.0011773156555203673,0.0015720145664901335
3.52,-0.003226861048537054,-0.011146968652319431,-9.797581857319688,0.00024984241398728007,0.0006111719180159631,0.0002183479133882045
3.5300000000000002,0.01505298649034804,0.008522931346851054,-9.776696066093583,0.0005447268181952331,4.631489563798228e-05,0.0015540501814574584
3.54,7.26214715455701e-05,0.00580854144757612,-9.803513423129667,-0.0003564711442247224,0.0013322345721792478,-0.0005443671202130228
3.5500000000000003,0.03938595785031968,-0.02128001281391969,-9.803089412669953,3.974815359871305e-05,-0.0008719625522902193,0.00055502372034752
3.56,0.0015315156175946774,0.0527786371893975,-9.771313373055007,0.001545125956926534,0.00012264382017914592,-9.688569870390953e-05
3.5700000000000003,-0.007071588232531114,0.021443821962086565,-9.776333401705392,-0.0010146169630679267,-2.92926535523081e-05,-0.0014927942597215277
3.58,0.015474889659888379,0.01891628138769442,-9.785488569556755,-0.0008128779867188272,0.00042678604610913546,0.0014190131977413962
3.59,0.013415954544811686,-0.026058548920829996,-9.757788021336097,0.002909210861229503,-0.0003865850850709007,0.00153530015664544
3.6,0.0010498982743132133,-0.01974451519754544,-9.796736472488584,0.0003437524804016479,4.875235325362413e-05,0.0005325944517261522
3.61,0.000718912806408626,-0.011024707961097883,-9.771097002000854,0.0001619164836799592,0.0003103957256122185,-0.00030833316282666924
3.62,0.029483862406654786,-0.03418398854910594,-9.796945518197381,-0.0012981096597988507,-0.0013436252025220816,0.000753244883281227
3.63,0.0011379059462535129,0.0015570928086136296,-9.752523659788352,-0.00017670009008571342,-0.0003960888996561667,0.00010850562672315358
3.64,-0.006271573021770468,0.03624824277374229,-9.78957419213926,0.0008949322529156275,0.00038036394302639817,-0.0005560549366409673
3.65,0.04143455401719756,-0.001219139072885055,-9.795211634027602,0.0013262929556489497,0.001779185502981632,0.0005945566553228534
3.66,0.009547253309130081,0.03084501432580537,-9.783483673117708,0.0010736635113440902,0.0014419599968138112,0.0012300993164045138
3.67,0.014185049745828966,0.01773395382865905,-9.804244465939188,0.0007140991771126237,0.0007983470470748829,0.0006196605733465027
3.68,0.016733762169939787,-0.007562961411413885,-9.757224693125087,-0.0009973376745470435,0.0009007231568595857,-0.001255813971126554
3.69,0.018373241605014343,0.018854529583051862,-9.827436538771755,-0.0006945994551250549,0.0015035650678080876,0.0009402201626941976
3.7,0.024134638509412776,0.00144918533098491,-9.815393161790865,0.0015873982896858626,-7.167438368729223e-05,-0.0010522488412767674
3.71,0.011899586853259116,-0.025365756208012184,-9.774429428394056,-0.00014043719707034283,0.0003020312972405742,0.0001789887163400097
3.72,0.038679420750461414,-0.030811382942371696,-9.787249633575076,0.0012336804787567016,-0.00016127042500344553,0.00045203447180292423
3.73,0.006702185366002214,-0.034791419382914995,-9.768319919886054,-0.0008886271494346061,0.000650317278043813,0.00010310855018563674
3.74,0.022514208698069575,0.04552176899605063,-9.776726651558372,-0.0006498133382845174,-3.58293621748528e-05,-8.417574651522164e-05
3.75,-0.007579994847656939,0.015286718782713503,-9.760953858016302,-0.00017015512933709617,0.0019713412422676835,1.5539976921203697e-06
3.7600000000000002,0.000702602834658483,0.022048280070801684,-9.833748183759182,-0.0001438961101773377,-0.0018974509576101415,-0.0007942073519794773
3.77,0.03950134016649385,0.021007759916990262,-9.837537389320557,-0.00016307342445635284,-0.00048585267617664283,0.001481707593377797
3.7800000000000002,0.017653120989212585,-0.034730066990257866,-9.798871700125403,-6.493777539621862e-05,0.0014884442493182525,0.00016170463405036802
3.79,0.023577361254970987,0.0022794780828987705,-9.761517744048634,0.00013722783642157663,0.00011120355228749906,0.00010379625162145914
3.8000000000000003,0.011274692321539855,0.004251006344720679,-9.764680104340446,0.0018187950030498594,-0.0021196107267512183,-0.001901545744438679
3.81,0.003248067852643712,0.004496673976798629,-9.784516619485936,-0.00044317083105611385,0.0002145278819375689,0.0007901044247640124
3.8200000000000003,0.008649973502012694,0.028204358999484147,-9.799986035509185,0.0005730871980274752,-0.0001842459128805702,0.0011190436932417625
3.83,-0.00660612666155245,-0.016233607716471123,-9.829486641431636,0.001130195403152731,0.0003840578312715655,0.0010626575724868412
3.84,0.03967484156801081,-0.013015733173872654,-9.791421905180558,0.0003726452634321288,-0.00036148302678288364,0.0007978168390000048
3.85,0.04115972195420933,0.0021622592850221328,-9.77636191153984,0.00021061312257867772,0.00020133984675448693,0.0015729535721895743
3.86,-0.018411851711501864,0.03296708953145368,-9.789081960898796,-0.002350872128540087,-0.0012176841701595697,-0.0010870704263743701
3.87,-0.010365887001031396,-0.015380479733031669,-9.752850482610596,-0.0002632606475688056,-5.4608169766030135e-05,-0.0014073256477730475
3.88,-0.0017235414593912111,-0.01493188952581308,-9.795311389217117,-0.0008851580323108264,-0.0006608416785235702,0.0025574240920758916
3.89,0.010907448016827652,0.008036388826359604,-9.777762848024619,0.0019017419477471466,-0.00021174941768464927,-0.00026358329030679896
3.9,0.01469522078612285,0.017942774302615268,-9.792104930928724,-0.001049203997188294,-0.0017081304132252667,-1.6880186408524034e-05
3.91,0.05144358986001095,-0.0047688029577108585,-9.759602124567168,-0.0008978519832440258,0.00011514946833799023,-0.0015002058490434773
3.92,-0.001980247472287002,-0.02355534589031294,-9.819991773004915,-0.0006619744583102578,0.00034862709530283085,0.0004662095977839374
3.93,0.016079014997999977,0.028239179832819695,-9.809670428104123,0.0005174719587420145,-0.0011204889841570373,0.0009546857301355617
3.94,-0.007549889350984858,0.012722564218494655,-9.78670083990007,-0.0007002116966018503,0.0008328579146073064,8.936132338180686e-05
3.95,-0.001712945747192874,-0.020585246025040645,-9.780468487919913,-0.001276387499077948,-0.00011619770458118798,0.0004653637420637676
3.96,0.02305862903997969,0.014834989267800028,-9.786119728159923,0.0007129653804745991,5.90121025555814e-05,0.001631778890601053
3.97,-0.011114096877628188,0.01129109242082764,-9.781853436915393,0.001107510770986559,-5.665411639975282e-05,0.0008501218121369446
3.98,-0.01626430299340046,-0.0010468309125566113,-9.779321393220165,0.002033793485188187,0.0021604846007830273,-0.0011279998808224974
3.99,0.008435192718006674,-0.034210685712445836,-9.799457076302236,-0.0008265331111571506,0.0016849187867338511,-0.0009582810508376371
4.0,-0.004137532049811567,0.016185877112723183,-9.734682331883315,-0.001222541133291679,-0.0002861941306990469,0.0005202267094745858
4.01,0.012679304065442673,-0.018959347686369282,-9.789860120516508,-2.396706611096372e-06,-0.0004505636204055922,-0.0005742124617245089
4.0200000000000005,0.010212693149020364,0.020131907948097313,-9.761807561560715,-0.0006123370644127087,-0.0006795096286589426,0.0023816328772760615
4.03,0.03782035672569958,0.015744584069190676,-9.786665852498915,0.0003975110711855549,0.0010867590544047386,-0.0003890774681189237
4.04,0.03966804011318334,-0.0019500439843245102,-9.78556040866823,-8.595667718604886e-05,-0.000513553981370355,-0.002551708334919202
4.05,0.0051312579087160705,-0.037625833572659924,-9.761214856130305,-0.0012780092768478661,-0.0016106186799803948,-0.002149783777951608
4.0600000000000005,0.02351038416692263,-0.04240019140460856,-9.766614918335463,-0.0010953589742981028,0.001524955679381631,5.556383229564558e-05
4.07,0.0039312539061097055,0.02477092071491765,-9.785134198404931,0.0013905637623211741,0.0006109825769008753,0.0008825588257151593
4.08,-0.017146784963455446,0.005527070352088311,-9.80461904851055,-0.0008008969953045751,0.0007239509541926707,0.000828714234074346
4.09,-0.014457700482924983,0.022340580016577998,-9.778819088004239,-0.000476647292233693,0.0007595403706161663,0.000666187758574833
4.1,0.039951375546994176,-0.0028876997219929547,-9.805908067936887,-0.00044955262113008284,-0.000922768432270995,-0.0010841283318982723
4.11,0.022776088333852806,-0.011673639273252365,-9.792853897088023,0.0001865055419214618,0.0005270098687893148,-0.0006925258304579144
4.12,0.02050190870251784,0.0024810873139966706,-9.796424619562519,0.00012658534132609865,0.0007705370361384854,0.0007181907146653008
4.13,-0.018053242594693923,0.023737828114245726,-9.79401853718941,0.0016518801201224887,0.0014769808321980435,-0.0009012914327565442
4.14,0.02236185906685973,0.01471985160323399,-9.764824259074754,0.0017835862095380225,-0.0003309765045557148,0.0011448728124544276
4.15,0.005288633050759061,-0.001954375382048441,-9.80881536964319,0.00016798662605108886,-0.00021214937845696758,-0.0017076968597749328
4.16,-0.0008530161602036661,0.011823269217418992,-9.802991089114387,-7.15645102163482e-05,-0.0013593832353056088,0.0010672992358427722
4.17,0.016315739577482086,0.03434584049627397,-9.795554244823865,0.001616792657139248,-0.0005969109892966902,0.00040197074251927114
4.18,-0.016287390181730872,-0.003268023046007678,-9.815103199690366,-0.0006253915220079754,-0.0004284847301367897,0.0008744947038653714
4.19,0.03668447072007321,0.006697026715110492,-9.801219074674973,6.146173815658749e-05,0.0019396480419310118,-0.00038223247870292103
4.2,-0.0011971236120305682,-0.01864226147621292,-9.766427196427532,0.0010993363324744891,0.00029741341295778196,0.0008957780097442333
4.21,0.046743924201551997,-0.024881856056661527,-9.765784780881148,-0.0003471576573299467,0.0001504411624484173,-1.549887929893475e-05
4.22,0.005082985259992861,0.030349807082758938,-9.82332656308103,-0.0007360571148457871,0.0008620815345817527,0.0007502490055783642
4.23,0.01450789399156541,-0.003157989542332763,-9.773468219084606,0.0006935546949055668,0.0017369656539176447,0.0015493448012363037
4.24,0.011222837544440043,0.005445120261703701,-9.78876973124924,-0.0002749446898491354,0.0005730523184341782,-0.0005236006892582126
4.25,0.0412459774549694,0.001500525694339814,-9.769364335052737,0.00012335531611455547,-0.00039974944911886474,0.0017200703091360512
4.26,0.02257026677955309,0.022776182137536162,-9.806945008927084,0.0004636981503429628,-1.8029128104422117e-05,0.001293618571856377
4.2700000000000005,0.024143461326701664,0.01173738872410389,-9.810439130678084,-0.0020706154097954116,-0.0018141025948652896,0.000895838655219774
4.28,0.005752085786629047,0.05088559149188862,-9.794486128795025,0.00016046844811736806,0.00045044630026076066,-0.0012263961033185486
4.29,0.00264700469082338,0.014014201984955892,-9.79746741072583,7.67662891496338e-05,0.002203509410401342,0.000924199619795863
4.3,0.012809063530247907,-0.003978182606529937,-9.778602277773757,0.0002697065451428121,-0.00023905391010493765,-0.00029457285186939387
4.3100000000000005,0.008762256290092817,0.04403985591229049,-9.785729860809944,-0.002029197889200018,0.0004576404209211606,0.000945483108481854
4.32,0.005547781564989074,0.025588725003019286,-9.81447168936718,-0.001475619327170615,-0.000461416892306816,-0.001057464632233422
4.33,0.04383445079349359,-0.014769614735870795,-9.762801047603713,-0.0008653511948087635,0.0002534816268219002,-0.0019844021549884744
4.34,0.03913219486020619,-0.005516125641603638,-9.795244258267012,0.000714270438357064,0.0009538550699336822,-0.00015110258803691248
4.3500000000000005,0.007816439719236873,0.017430927765113492,-9.806611162781238,-0.002380708509984542,-0.0007964186260023897,0.0013329019341026967
4.36,0.007815476669584235,-0.0012684953766380304,-9.809676248546465,-0.0026779942807285727,-0.00014752341219351924,-0.001080000778467259
4.37,-0.010900085455176704,0.007564938556287396,-9.784439492923276,0.0009045703015848366,-0.0004751139521434614,0.0005039540207356116
4.38,-0.005279544492932322,0.00658484056480918,-9.799589055213188,0.0006654604191690931,0.00203622583973002,-0.00010294194367537023
4.39,0.03614182022324357,0.002940362334915176,-9.76469930030743,0.00047604436962261134,-0.0012850554791274359,0.0012904135632937441
4.4,-0.02385379233795442,0.011455316491619533,-9.774728424844609,-0.0006605088480713646,-0.0003607541640877456,7.775220515078927e-05
4.41,0.0072423326116573625,-0.005777069169300704,-9.789727689023259,-0.0014628843453398496,0.000428770028928938,0.0010674662729250107
4.42,0.02484930351053008,-0.019210665405781792,-9.772640203911852,0.00039293382349729156,-0.001388897564178725,-2.3809294329659578e-05
4.43,0.016367314121411753,-0.00021584923399840545,-9.79101125311359,0.0008420289029794907,-0.0016779887659659077,-0.0009747660138177139
4.44,0.011237203447677525,0.038172391433097516,-9.779689951108516,0.00097654360408152,0.00047009543419728654,0.0005119715821267539
4.45,-0.00885384308885742,-0.0037059632751536295,-9.809541563254474,0.0019594948076233115,0.0006685527785062026,0.0007578880104331795
4.46,-0.027795765729510036,-0.0182427555314918,-9.784248472743345,0.0028107455272183258,-1.3804558090490697e-05,-0.0006978827636184951
4.47,0.035479148949649895,0.02491546797546763,-9.80975521571375,0.0005277963982471327,0.000638991029388895,-0.0004267153919462082
4.48,-0.005953000499086007,-0.013773677464597282,-9.838282188911066,-0.0009323970195548475,0.002509844422090078,0.0004268434703880229
4.49,0.006647180949185311,0.02106509909721808,-9.791697807740332,-0.0006322853814020756,0.0011159303022795987,-9.145151561334495e-06
4.5,-0.015356331032450198,-0.011902964982741931,-9.79322693599164,-0.00015288144631783127,0.0007622728719144932,-0.00119188226823169
4.51,0.025404400318984235,0.001343640762186744,-9.773951813871536,0.0004526272039171724,0.0021129548077317524,0.0005661776621973108
4.5200000000000005,0.008373173233335387,0.009735779620632361,-9.805453382703904,-0.0002762121037834645,-0.00030710528042824205,-0.0003103399733451094
4.53,-0.003716896074377323,-0.02011619331783154,-9.77461689173259,-0.00015396267804778106,-0.00017780653275827196,0.0010163114410745668
4.54,0.004176297403457565,-0.06695261433397628,-9.777026911652042,-0.001633209103208983,0.0010620000504121341,-0.00027968652514256113
4.55,0.029482825518005462,-0.01123421086405995,-9.777044300685803,0.00047694778569537223,-0.0009269879102008638,0.0014286310668494362
4.5600000000000005,0.005805445709780599,-0.0373564093873045,-9.747590648005032,0.001345634960171873,0.0011595905257500737,-0.0014147547757935393
4.57,0.005925607401031433,0.009028316335081273,-9.799141820175102,0.0009291210710660529,0.0006048550876357089,-0.0015052712471325675
4.58,0.004089396577079135,0.008233248053376406,-9.807500793027293,7.570261622918452e-05,0.0005645344890332626,0.0006560752738231509
4.59,0.043879294260666835,0.021762935158881343,-9.776313429212008,0.00027726136694885574,0.0004912314168473797,0.0015736113922530956
4.6000000000000005,0.007164353528760159,-0.010224374369511933,-9.766048207735086,0.00132603390991068,-0.0026670549537827436,-0.000217438554837682
4.61,0.0222138682320209,-0.0029884482426659623,-9.808340442300507,-6.465102754395128e-05,-0.0015520985727269711,0.00019418305823231218
4.62,-0.021518053399309678,0.005571444279520934,-9.791628482833064,0.0013487577724105066,-0.0008865678595905904,0.0004364009386898723
4.63,0.033712490750867505,0.0248440905143149,-9.78587211388235,-0.0008158234772964378,-0.0004719120236796768,0.0015773936341700351
4.64,0.008377606041037747,-0.0180417451442914,-9.765430449837835,-0.00044255782011182497,0.0006622124890106247,-0.0017712181160609872
4.65,0.008865402148897663,0.0171056196133842,-9.76311391757149,0.00196231756139488,0.000802652446306499,-8.249984265026169e-05
4.66,-0.0013121516440453423,-0.01155831401537576,-9.73727588656105,0.0006755465099998948,-0.0012098194289478102,0.0012825307417526572
4.67,0.02188937562150989,-0.0005719691899515366,-9.761852084927952,-0.0002239847754964302,-4.069515048434692e-06,-0.0003916556149654845
4.68,0.0038348610916356714,0.011509707683843153,-9.798014665311966,-0.0004806514027455847,0.0008946706116284086,0.0003559068501042229
4.69,0.00966058991479353,-0.00048140262504058236,-9.801687618362724,0.00075174814140304,0.00019120531051442855,0.0006131998110771811
4.7,0.01485724981790273,-0.007771903628587074,-9.775130259173094,-0.00031884874392503837,0.0024297318414095485,-0.0014679304164304985
4.71,0.003909114760385516,-0.029401990172334257,-9.774233038181858,0.0013609373235629843,0.0015679074507209709,-0.0007521588059655938
4.72,0.022751949920178594,0.05007104011770391,-9.786295563272873,0.002329273610555973,0.0011954902829453182,0.0010711390068229116
4.73,0.01366643317354485,0.014571799829959185,-9.766255957081299,0.00012802218702587668,-1.722615821867643e-05,-0.00010940882703960811
4.74,0.02914398679779151,0.011375707657445375,-9.787309506052376,0.0004905305963195172,0.0016011862750338964,0.0002813142178614196
4.75,0.026853236419217864,0.003508013861766417,-9.812433361008502,-0.0008114436231372903,0.0010244270623849798,0.0010211507463947923
4.76,-0.0200244970940101,-0.0008652958560789112,-9.784250619293434,0.0007546595284477862,0.0009454989065249826,-0.00017092813015780813
4.7700000000000005,0.05944058480543568,0.0025994895274524285,-9.785717989088626,-0.0008289891671305795,-0.0006681934306407798,-0.001535463248457858
4.78,0.0019133430218966924,0.017376118852918322,-9.781043138527147,0.0003369486115459498,0.00011655121677340638,-0.00033998770452970875
4.79,-0.002766731224345658,-0.015229210274559056,-9.7946973373044,-0.00285561882434507,-0.0010473174696941688,0.0012208406514031668
4.8,-0.006867421488827659,0.00037678059372836786,-9.783820404239359,-0.000564626000063131,0.0005605916776568414,-0.0012906854299752563
4.8100000000000005,-2.387044230361783e-05,0.03408997768158637,-9.763462104089305,0.0015387054823592311,5.59723399453236e-05,0.0003900403964835352
4.82,0.005408847042999237,-0.014283324733776904,-9.787245875106668,0.0024257797918816847,0.0017164401005894038,-0.0002065656212870578
4.83,0.007325633047337312,0.003744350887310939,-9.79461050262817,-0.0004932201848703592,-0.0001255450115195318,0.0006098982484765357
4.84,-0.010987923200993293,0.005697790235625763,-9.793667294327776,-5.224134250871124e-06,-0.00019524414500347168,0.0015671812507090422
4.8500000000000005,0.004761292953967853,0.006879222946830722,-9.788037168148684,-1.4209891777836877e-05,0.0024995890930373196,0.00019074256375217302
4.86,0.011444399055348133,-0.0029436726018520114,-9.779447104174093,0.0018853183942247275,0.0005573194227106268,0.0010629605732494479
4.87,-0.004355983655303618,-0.01675883147948651,-9.804449581239483,-0.0006246110515177244,-0.0006537592225874118,0.0005597059550149875
4.88,-0.0035337900791803656,-0.02075603119819607,-9.820504134472978,0.0010885532424653153,0.00024025650200046287,-0.0011863933350836971
4.89,0.020069218114721104,0.03048486404981627,-9.775495918344198,-0.001260258366289327,-0.001227136402186241,-0.001667622112939381
4.9,0.00033806202632701704,-0.029328721908104285,-9.78281112092931,0.00020948535944708752,0.0013250439217080254,8.658421307519124e-05
4.91,-0.022146136390754287,0.003266813108534074,-9.802641591539357,-0.0021604147573378524,9.239539665451295e-06,-6.279899663260711e-05
4.92,-0.035611893275296805,0.03461068206705853,-9.811766077954704,0.0021959987502254393,-0.0012571379129195563,-0.00029067760259919573
4.93,0.002884179102382923,0.0024205875754295106,-9.796059013379745,0.0018058526805445642,0.0006499783413465481,0.0006633130735164247
4.94,0.019291603511601384,-0.009819407903390115,-9.779011835151568,0.00021458443702387822,0.0005299435386572646,0.000877609530278536
4.95,0.01637009859198195,-0.022555034010695398,-9.781933189430083,-0.0007094863188927663,0.0010780585789081998,-0.0012730030168855392
4.96,-0.011079447006180214,-0.018312815335926817,-9.780838748285955,0.0004283679728315381,0.00037874096328632714,-0.0005162930881921079
4.97,0.001832924941620892,0.01245875348306831,-9.779015234815878,7.731472467435327e-05,-0.00042254015266555305,-0.0009717013268617444
4.98,-0.018560107376725407,0.019812357792084012,-9.780949672141597,-0.0002536147416136444,-0.0009039886353716615,0.0004227974640932481
4.99,-0.0017327554222699333,0.002282520512768882,-9.771267146612356,-0.0010500854941523634,0.0009119770229910514,-0.0010814790679288201
5.0,0.003607778701254224,0.04730518957562976,-9.756836140070583,-0.0004662949155810064,-0.00042460340821517907,0.001425146728874839
5.01,0.012335670450074209,0.0004402501915979967,-9.790343469587004,0.00043028994561659185,-1.173380254439424e-05,0.0005987194410697233
5.0200000000000005,-0.0020130678446345293,0.007504433945495367,-9.772899067975862,-0.002007192347329688,0.00015686641035909257,0.0020975141778047626
5.03,-0.016989562066992495,0.017855581629790028,-9.767978978536231,0.0002323465064026726,0.0002679131691693355,0.0006481283796421961
5.04,0.02144353723903096,0.002401103791053779,-9.77603738948924,0.0009956052433143456,-0.0017974666928898598,-0.0015823264817910268
5.05,0.03598561980312184,0.0038361161553461653,-9.78617779630507,0.0003102912910861466,-0.0005148765618975097,0.0014120252622199143
5.0600000000000005,0.052650898063312336,0.011144875696730746,-9.806795879423388,-0.00021517438988522393,-0.0017345307357131178,-0.001168013916843997
5.07,0.027459424993693894,0.013038838027439995,-9.799758340528923,-0.0026496760196305755,-3.4125537282912553e-05,-8.838412726438337e-05
5.08,-0.012079043882868309,0.009771957178261821,-9.787852019389687,-0.0003244627097818978,0.0012788790390297388,0.0012985198365166937
5.09,-0.014884995844541163,0.0032305248055934516,-9.78967877026102,-7.03884233561112e-05,-0.0019346936674768558,0.0007172815804922585
5.1000000000000005,0.008751710358068309,0.014831793531974773,-9.821887870925835,0.0006553602285085756,0.0005093915701569451,0.0010814797493081158
5.11,-0.012242572579793403,-0.004738906648517178,-9.760126418271575,-0.00106482809646104,0.002208755386185139,-0.0008594277531418679
5.12,0.057355636716967986,0.005096859116283362,-9.785739100361203,0.0008492229272008547,-0.0014873476944133517,-0.0008302646872700508
5.13,-0.0388673050878562,0.023089247271203685,-9.77765712093259,0.0016163686467253362,-6.08998230008499e-05,0.000939922605132798
5.14,0.015662716577720257,-0.019924264717272218,-9.747052240743617,0.0003369553887192461,9.504184399982733e-05,0.0014638503249326897
5.15,0.040410858780671216,0.010887073029998313,-9.766810104876189,-0.00013665882465190032,-0.0015807381075634704,-0.0007032400919517051
5.16,0.011022199139167611,0.021421541115596732,-9.812795036155451,0.0006511917287016942,0.0005955091063625081,-0.001467058250235438
5.17,-0.0354741850923914,-0.020389830433104304,-9.802779651827521,-0.000624342519408201,-0.00038172134920224667,-0.00026546959411422505
5.18,-0.002871250675418371,0.013962255675702407,-9.791796765978308,-0.0012759135886015514,-0.00042837110811947863,-0.0006286104852595274
5.19,0.00942671647290072,-0.018692195733618938,-9.812073320973935,0.0008715332597619194,0.0010091213109902437,-4.5810458088815995e-05
5.2,0.010822067472686287,-0.0058421007702399224,-9.786558692438595,-0.00029203979587073153,0.0003399243120391134,-0.0007165751074555749
5.21,0.020887987303710494,0.037789722435110314,-9.787059043511704,-0.001046832082167441,-0.000740221208925717,-0.0005348131639714567
5.22,0.04626687800532711,0.013125496484219536,-9.7728599337725,-0.001063473799792271,0.00036205955906287474,0.0008297156737837085
5.23,0.031061702038697396,0.01939493158289347,-9.802684136437176,-0.0014870983007982418,0.00022512871121603336,-0.00011993579526633557
5.24,0.031661100822052125,-0.002481651844113443,-9.78061622560655,0.0004415086855368029,0.00018706123189641193,-0.0013535992799316309
5.25,0.012657024172690047,0.02788192731321516,-9.778788662329415,-0.0011623892988571654,0.00022942357558497273,0.0011287809197455094
5.26,-0.01772321010983674,0.04683313516127833,-9.769951322962676,-0.002114187371043003,0.00054572657980158,0.0012896220052876432
5.2700000000000005,-0.00100985211026694,-0.017745983858395466,-9.767664611048996,-5.3025876206213096e-05,0.0007502024960264408,-0.0006030690808978022
5.28,-0.010381326261617084,0.02101433745031653,-9.76526834283946,-1.9366199276876824e-05,-0.0014209135183081516,-0.002244343308418874
5.29,-0.0029953531281958976,-0.009779735949055256,-9.796054347715643,0.0010427658012252751,-0.0007849949277244419,-0.0003555278450034305
5.3,-0.009777602501174766,0.009591371143859793,-9.779204414169966,-0.0012864422532701933,-0.0012099697030838758,-7.383770009461634e-05
5.3100000000000005,0.024549842719469955,-0.011666481853921315,-9.769850812625169,-0.0006295771941356464,0.0005779709979946985,0.0005525384189795919
5.32,-0.009753520983789806,0.021787846564305356,-9.81638318699156,0.00042084964632460716,0.0004386007909284437,0.0016777682049318862
5.33,0.04135479828047004,-0.005430328802277488,-9.774668222795565,-0.000967593769044886,0.00014506513379708227,0.0012326898205195888
5.34,0.023569230002930548,-0.020390686347140252,-9.769947336714802,0.0013645398093380366,-0.0012217636493445727,-0.00021235544165586993
5.3500000000000005,-0.0010149585846220034,-0.0011214724070197054,-9.800054445210522,0.0014581210958672605,0.0007080791051990653,0.00029526303147977276
5.36,0.04227587146230473,-0.01839949501583263,-9.778044244388058,-0.00011768469343465675,-0.00018380092570774543,0.0003882190630903242
5.37,-0.0024732244495924392,0.026821442920314208,-9.740222910874582,-0.00015237412498448336,0.00015742137895555583,0.0001785987061150374
5.38,-0.0026069052180237515,0.007801176158251148,-9.794354045118084,-0.0005780715284934992,0.0007321293738814383,0.0030142446484154196
5.39,0.03076142375015721,2.596449616948642e-05,-9.768539552272117,-0.001676986639326075,0.0005240125241899799,-0.0006601900886189056
5.4,0.0020453814432781787,0.04987474997527154,-9.830480483893481,0.00067740257751925,0.00024655747332786096,0.0008618547740424636
5.41,0.01753731202942009,0.004789172997654607,-9.787584695372777,0.0012755065765087796,0.00039242111776818133,0.0012320522884141781
5.42,0.015707884510710764,0.006168678551597306,-9.7822692306275,-0.0022442978937886778,0.0017904522979160233,0.0004750621518923401
5.43,0.01816201048114899,0.03997962042956615,-9.841961595431286,0.0011778433557451818,-0.0010198757448415215,-0.0007307698816053356
5.44,0.04694159168804123,0.05619596036703237,-9.821671587682932,0.00024593829414477415,0.000182962110662537,0.0003830685880099896
5.45,0.01095712795398051,0.03242585205586932,-9.768279335246126,0.001184515160929966,-0.0015652203153028491,0.0010738190717173091
5.46,0.04352419041350894,0.012438866122237296,-9.827305866959827,0.00010828190995792702,-3.7818611245477366e-06,-0.0013711152343848904
5.47,0.03609258957506353,0.017709514039649973,-9.757323129258873,0.000603048668376865,-0.002214107851031037,0.0007483940112387128
5.48,-0.020679799962984226,-0.019319793589698767,-9.786320874865643,-0.0013921058354729918,0.00025345791261747406,-1.9168837327920423e-05
5.49,0.036661879484505465,0.037231783078322464,-9.801164919548263,0.0012695381472938839,2.134483098610983e-05,-0.0005941385611456657
5.5,0.00187122600024839,0.062439220631987875,-9.797705585947927,-0.00040660269597120297,0.0014728827687546637,0.0006362969691808937
5.51,0.023506951655623463,-0.004036869956682035,-9.777154811476182,-0.00028562998152316133,-3.6446419964513425e-05,-0.001467177090585447
5.5200000000000005,-0.007326662814346021,-0.011756716340849935,-9.79406565931932,0.000488474200851541,-0.0015598157076954656,0.0008517964658354562
5.53,-0.0009043458996638096,-0.0010823337743461415,-9.776132971473258,0.00022862159249126583,0.002586951799573923,-0.0010001355537243059
5.54,0.04780756933434252,-0.006810100829159982,-9.806419317093363,-2.662091040632941e-06,0.0019982877009230627,0.0012913896402914145
5.55,0.01019018535697785,-0.012026929211037457,-9.819352665784372,-0.0005962120515798997,0.00042396742837344775,0.00010199935641508723
5.5600000000000005,0.031285320580411606,0.00661012677080212,-9.783080131072953,0.00038195586739415716,-0.0004986804359848298,1.0679597299265479e-05
5.57,-0.02854328438754221,-0.006695244685188771,-9.814967535364529,-0.0014980523752767137,0.00033512345186808207,0.0005500206734218321
5.58,0.009590602056947508,0.007686498377863295,-9.783978014345298,-0.000127419412643884,-0.0014150508905847877,0.0010885318628514626
5.59,-0.0033389188942048037,-0.01205941360496018,-9.790514327616526,0.0004645250379928023,-0.0005260150977009769,-0.00018060044683806394
5.6000000000000005,0.017140248323039745,-0.006584292631858357,-9.805398129248578,-0.0014006694027818387,-0.0008254101277779044,-0.0004378113463571395
5.61,-0.007894254407797474,-0.008168586011622965,-9.795702988280722,0.0013284208122801512,-0.00043950339088747565,0.0007402136593287588
5.62,-0.011963626721255007,-0.003910221062171776,-9.761927315277083,-0.0004383162028615798,0.0004479475608518749,-4.139550214380217e-05
5.63,0.004109875131403931,-0.019776994361369423,-9.83181986771076,0.0009730566000927435,-0.00033481133821855794,-0.001472528250002441
5.64,0.04672773434449487,0.027786398080439915,-9.780957906872269,-0.0012819490313636327,-0.0003318774939427574,-0.0011490599706780527
5.65,0.03325406459106429,0.015551914461021905,-9.788163403566148,0.0005102120156795513,-0.0002657681648580778,0.0024746065500264314
5.66,-0.014803767747731974,0.04317267044465494,-9.795390821188658,-0.001637714595137132,0.0004036331787098012,-0.0010279530235056688
5.67,0.0023521972295861785,0.0057491356883119715,-9.785557572928118,-0.0003934013403826786,0.0003414194733405442,-0.002225371374874287
5.68,0.021494140291626627,0.014191751197168766,-9.798187272989793,0.00033682611678802747,0.002102907462274168,-0.0003534382983685929
5.69,0.010517733535175804,0.015861568820272915,-9.799889816470966,0.0003598078568055095,0.0012249216931253994,-6.395350002699655e-05
5.7,0.038933097165483745,0.004594961370354273,-9.75468048394677,-0.00048096018853148323,-0.002075736403721752,0.0007409907193949734
5.71,-0.017842711601488682,0.018092578083310887,-9.804457393278922,-1.3168409728897234e-05,-0.0008126838513881617,0.00022659671027769356
5.72,-0.0026894321931842467,0.023097022390821547,-9.791219545192153,-0.00048368035680618134,-0.0003284261311155256,0.0007062911561087083
5.73,0.06194823682865212,0.01536055771295795,-9.80056551363864,-0.0012383824113238445,0.0012473152860737586,-0.0012976861631184037
5.74,0.020396013519774145,0.000256000346003208,-9.77000897655645,-0.0005627014083552638,0.002122946194066577,0.0012273547616424223
5.75,0.004076266366909537,0.013133530855747758,-9.782681351138631,0.0001976039924954402,-0.0007405302155012166,-0.00042927230669989326
5.76,0.011568576620779574,0.025835965185617014,-9.82271505087836,0.0001732753145856964,0.00023752323233959842,9.12907037403715e-06
5.7700000000000005,0.011950210982670177,-0.009023483165191765,-9.813623018273853,6.916748591581567e-05,-1.437510970511409e-05,-0.0013419787356400128
5.78,-0.006756149980967933,-0.00739507822994486,-9.791356746302714,-0.0004165107421608329,0.0011146240539868465,-0.0012683342975511175
5.79,0.016746586991715433,0.01584586526578488,-9.794831365112625,-8.955551153927851e-05,-0.000619753928770844,0.00021135042939811132
5.8,0.04169246609910263,-0.0024266004853167513,-9.825579131873635,-0.00028863318106681817,0.0016773936649746692,0.0006065831541902538
5.8100000000000005,0.0031081726961577757,0.00594320685604292,-9.852109330938095,-0.0012118031657772114,0.0008712280116136987,-0.000674651856262063
5.82,0.03414671830259707,0.003018466689676328,-9.809697916738505,-0.00047699637137753364,0.0005138190201071218,-0.0003917474197301347
5.83,-0.009202590132393275,0.02023449998778079,-9.76897157643084,0.0009928558163229554,-0.0005745100615133955,-0.0005189465525913632
5.84,-0.0029753193324805853,-0.02210583235463043,-9.784032389177431,-0.0005563708935481088,-0.0003656387483550389,0.0011991915555478129
5.8500000000000005,0.01628819526613312,0.016305386587149785,-9.797912547139049,0.0007287962936103032,0.0019099439540120713,0.0023676442038992546
5.86,0.007558022850990055,0.005402855697450151,-9.767313763942298,-0.0009307170319323398,0.0002704191273272889,-0.0010762003166434329
5.87,0.03658607232789396,0.037013809933678914,-9.760600389691076,-0.0006776059277482671,-0.00043008251025566946,-0.0009571548741382743
5.88,0.04626922348539169,0.025263221462311896,-9.798437057635734,-0.0009518872728984137,5.571562147974515e-05,-0.001116718418386407
5.89,0.04067017168893325,-0.022528408961310364,-9.739360703450485,0.0009421269591376329,-0.0007177535374175143,0.002909568970096392
5.9,-0.009504706704259088,0.022752961975271,-9.757764924183247,-0.00035138445096439516,0.0002720176419170522,-0.0011953411844660353
5.91,0.01918579884315507,-0.03600703048311948,-9.80560887862451,0.0018060917581276393,0.0013195006808029164,0.0003969158707361125
5.92,0.017136271538666766,0.01771241723472589,-9.790225832211746,-0.0012468025487795656,0.00041066687772462027,-0.0010214310460172548
5.93,0.011486706940400934,-0.024378037779546648,-9.751162953981694,0.0015623552634733608,0.0010091947318531728,0.0001954390384877361
5.94,0.0024413267051196343,0.020775174529286403,-9.758578758384765,-0.0023363756632473224,-0.0007834159786590306,0.0007877611315998725
5.95,-0.013100866563970559,0.007560306936570047,-9.781090165393927,0.001312883691723156,0.0013091698114921317,-0.0014920130022414554
5.96,0.0048389874436381135,0.02354710345128223,-9.799994885639624,0.0004015523068129041,0.0012155152164829296,-0.0015583355655822452
5.97,0.011099551591948203,-0.0024178977444003673,-9.740139140818423,9.209548462676365e-05,0.00047384239830845624,-0.00020076458484673493
5.98,-0.0032559934689369314,0.01989891836162012,-9.750717188858752,-0.0017521618554012016,-0.00012569811007372868,-0.000227305430255024
5.99,-0.008367305200637982,0.006906658983414071,-9.806378258581136,-4.807240454775419e-05,-0.0003634714254250696,-0.00034301215324146733
6.0,-0.03025840237026494,-0.010700348977087788,-9.798057266545255,6.0293717653022106e-05,0.0006424546049697111,-0.00020442676285666722
6.01,-0.00021856630495084226,-0.000992863368105252,-9.786527451845595,-0.00030964892836800187,0.00029235403825445807,-0.0018209159258951815
6.0200000000000005,-0.013936032219950057,0.012032404316596808,-9.762383357896406,0.0005770351272264581,0.0001994369028770412,0.00013969352659756184
6.03,0.03661290442570614,-0.0002034855313452653,-9.768772241957043,0.001060734307594464,-0.0017528155300482481,-0.0018738338698589638
6.04,-0.0036200034698823883,-0.0018672738629112277,-9.778679505065373,0.00037380384532351954,0.00019288314487148422,0.00027017694319193223
6.05,0.003305759695199786,-0.02027812628564788,-9.769984896856894,-0.0003621270751724456,0.0008643536742399311,0.00103263884299112
6.0600000000000005,-0.006572077730347797,-0.0053995248485942575,-9.765485546217814,0.0005839822939515271,-6.082845840458311e-05,-0.0020076893876144032
6.07,0.020742506143549284,0.008522222728767317,-9.816036147541489,0.0008692362080371282,0.001421728666217593,0.0007445584119839801
6.08,-0.01326600597859096,0.012946485674609206,-9.77404936574581,-0.0007796424273675065,0.0008737943936677578,0.0009605297079614455
6.09,0.015060387202596375,-0.004474797063248696,-9.79678210788708,0.0016588162477990857,-0.0006761099242279577,-0.00012645458454413848
6.1000000000000005,0.014316621139606446,-0.020035441868472885,-9.784816219655962,0.0008472720511434553,0.0002574100714381578,-0.0010173276020512747
6.11,-0.017775406523675666,-0.0160525689205528,-9.783085717977531,0.000514616285026703,0.0007786616338151666,0.000187962896331002
6.12,0.021664640244554823,0.011835995995272339,-9.808940631698405,0.0003195849271799442,-5.8705901685730165e-05,0.0015782789357160593
6.13,-0.02742035822268892,0.004833695212936364,-9.824637572166175,-0.0008006921837126766,-0.0003873207627637789,0.00011098551352752562
6.140000000000001,0.028888516515711248,-0.016626705700173588,-9.741966219094401,0.0009789540277008926,-0.0012973731700945366,-0.0012102967497654392
6.15,-0.009239833634971313,0.014259072135881332,-9.801382150794081,-0.0019377285077347179,0.00023269522525327078,-0.001018305817206544
6.16,0.006636522774994146,0.008679471012704889,-9.769444150938812,-0.00028455011001791677,0.000861378189891708,-0.0005415427207828465
6.17,0.03039030560217676,0.019546383281302256,-9.765897376901957,0.00033128202274336456,-9.933790775172203e-05,0.0007721143150964369
6.18,-0.002322279812411319,0.01797591821677423,-9.793467881946606,0.0005751280673480088,-0.00049193369617461,-6.865175340045264e-05
6.19,0.029724550764403043,0.007311483828176987,-9.774244750027457,0.0011437433977204946,0.000593376870254097,-0.0012969620577511314
6.2,0.015829511641944936,0.02020756481473404,-9.802803044195633,0.0007556180611713827,-0.0008846106224362382,0.001512513069961006
6.21,-0.02143828985938335,0.024779356143010776,-9.759750113218773,0.0011240988398410249,0.0004898854759184008,0.0002572328434361934
6.22,0.007682041492742882,0.02122201633678904,-9.819236211573713,-0.00010903225602742002,0.0008785239514000281,-0.0002707781694620617
6.23,-0.002430794511441625,0.0066390928191603655,-9.821355344152721,0.00033556987063989386,0.0010719343665194512,-0.00046180654352558965
6.24,-0.02058976388261303,0.008159034928149804,-9.798763631572752,-0.0005161927399906945,-0.000994365480724459,-0.0009644727461261722
6.25,0.003066484780725802,-0.003126048115685883,-9.812321581301093,-0.0017283953114415023,0.0009298287890155296,0.0019089145420827709
6.26,0.005649543229462522,0.004725923518983572,-9.798304207077198,0.0015253289434703056,-0.0014260844886265164,0.0008248546715562
6.2700000000000005,-2.9507269397377467e-05,0.0009205345366435384,-9.770254775831605,0.0015221063499235566,-0.000256809980738664,0.00020144743065004947
6.28,0.008110758617651146,-0.03352655789279506,-9.810527137138227,-0.0019078930508046705,0.00046673616797664153,-0.0009635597294347174
6.29,0.02863627944956184,-0.008712100419695012,-9.788419734094905,0.00029963501791151453,-0.0013612029221888803,0.000642858224477596
6.3,0.04849782083908933,0.017636316378363444,-9.82961650544997,0.0011245126754266899,-0.0005831798617151676,-0.0010369225814104344
6.3100000000000005,0.03889815705265229,0.007992934396232802,-9.7792639936639,-0.0020560230425499815,-6.641353407517704e-05,-0.00048159393428160515
6.32,0.01608340265244316,0.023267126237096987,-9.788244828733411,-0.0014510194123480548,0.0006530187563121716,-0.0003499703818646492
6.33,-0.01963136867393337,0.01147051801895304,-9.814286346825638,-0.0009757359586452324,-0.00035457240564044706,0.0011713045389296157
6.34,0.04633176235627248,-0.0022428190858075027,-9.787684810369617,0.0007029369437552222,6.997393850151018e-05,0.0007191050184648526
6.3500000000000005,-0.0035205149452972734,0.011783347256199315,-9.777562690326713,-0.001060911956386739,0.00023237010072703053,0.00024732233048647056
6.36,-0.003574055094321871,0.014061276623841924,-9.785295475563947,-0.0003698365084987269,0.0006354583359574179,-0.0006804334546444512
6.37,0.008082620910323034,-0.010030750741541038,-9.740362234107344,0.000609820707776118,0.0007518587715312919,-0.0028171598806970666
6.38,0.03365583731087941,0.019567259682375826,-9.764120321396291,0.0012903057035101178,-0.002847632565352754,-0.0005160490255561252
6.390000000000001,0.015998168677222535,-0.001986643979550399,-9.839511304108973,0.001125348034257755,-0.00011728672525244068,-0.001366185982469542
6.4,-0.014379734407038837,0.0483005098781713,-9.763445978300211,-0.0009937370617166706,0.0012269057463206198,-0.0018215045305486383
6.41,0.014046373388326277,-0.02655073042670048,-9.773954486478413,0.0012289911009620174,0.00014489790095771068,-0.0010923953304424335
6.42,0.0044391150658484755,0.018959158285506757,-9.808888352535773,-0.0004831150723026911,-0.0008172243411016413,0.0009662252008585286
6.43,0.00020101664400165933,0.022702257477174446,-9.748093748972938,0.0008324278097628383,-0.0015191611338760465,-0.0003035921185193341
6.44,-0.003168801380988023,-0.0149922406065191,-9.76619227891735,-0.0007631856623442771,0.0014935099684593705,-0.001250099118126421
6.45,-0.015198370462926386,-0.018760527450327823,-9.781331289149085,0.001704229104685014,0.00016670526048306243,-0.0010619344063800876
6.46,0.05171370891299814,-0.011975727688951887,-9.794045118469034,-0.0005772741840092778,-0.0006016188407684506,-0.001174618402015506
6.47,0.012226073598313592,-0.004454340240699825,-9.821986690215462,0.00019482685973037567,-0.0010279155506918432,-0.002080366208738189
6.48,0.026039143470160495,0.008726500686060715,-9.779312691067062,-0.0002796764708481731,-0.0016028561964178826,-0.0006521608680675204
6.49,0.007165922755055416,0.03526350485734289,-9.796740774512905,-0.0008091028886033558,-0.0006712160720258142,0.0021009631015901534
6.5,-0.01154100572822704,0.03827413851760351,-9.830622389702217,0.00015641156716957077,0.0004453710089953322,-0.0016763982963422946
6.51,0.006924038091591989,0.003489848203632907,-9.78894104632101,-0.0005539631336369219,0.00041530262994151203,-0.0009245289129130065
6.5200000000000005,-0.021024236344864396,-0.018700899284950282,-9.767490192635094,0.0010080628435179854,-0.0010026965859010301,-0.00018636613586517565
6.53,0.03770680394496478,-0.0033462033164089007,-9.805263274376536,-0.00048605163997555864,0.000364320659381916,-0.0005404900718554259
6.54,-0.02569582083403553,0.023811395320076277,-9.766657064079869,-0.00017089362707093736,-3.613009177798554e-05,-0.000634387757391301
6.55,-0.04621584282103455,-0.043478235846399725,-9.78391364871548,0.0005850938684971127,0.00043838837483742526,1.1386054746832694e-05
6.5600000000000005,0.015323620872760818,-0.004546555669329871,-9.787308981071263,-0.00033045833346195813,0.0009965440305199972,-0.00013583424381418134
6.57,0.0050552185070757445,0.0055285623975301615,-9.804668189607158,-0.00020669728782593723,0.00030469002988812603,0.0017965866829708509
6.58,0.009754968656121117,-0.00848733777238191,-9.801804217642719,-0.001240356208021204,0.0009698568930553547,-0.001793171161238105
6.59,-0.02733785235234233,0.0014891803114253054,-9.770590528664174,0.00031727315822862397,0.0017750828276087308,0.0005886685244673072
6.6000000000000005,0.00348830212775171,-0.0020696627760753887,-9.761535617328486,0.0002706250785397928,-0.00036044946880307556,0.00013104720048855425
6.61,0.03049964808910447,0.03969165441633851,-9.74150829550349,-0.00015206281540335628,-0.0005859766079313554,-0.00018987561547486985
6.62,0.0111897436058997,-0.018143351337932916,-9.797072770188741,0.0002983811606264396,-0.0005672170685306403,-0.0007062818206846841
6.63,0.021460041023732827,0.033802104912345234,-9.807627253998488,-0.0012602434375921744,0.0005907250260888961,0.0006453232619670604
6.640000000000001,0.01510556469117353,-0.010857235469533582,-9.789583085511127,0.0003316604442365175,0.001165170492728666,0.0001878676370807275
6.65,0.006767731948103534,0.012623723581120384,-9.746003488284792,0.0004920109373657567,0.0005038374256375629,8.459980581792138e-06
6.66,0.01950176553006934,-0.0035966680424327204,-9.798547418731397,-0.00043082182812964734,0.002414152615791911,-0.0003519509798535085
6.67,0.00618315224193625,-0.012433790633770432,-9.783857023121392,-0.0005658777111204363,0.000634009823450107,0.0003518544152950051
6.68,-0.03822470760624881,0.0007761242346029226,-9.789290173012978,-0.0013047915476103273,0.0013226782545637387,5.8054246491666905e-06
6.69,-0.013213016988817201,-0.0026428558035740566,-9.764251689676565,-0.0010109310952157206,0.0013887841143538741,0.000725675571596154
6.7,0.03384098708873205,-0.005662767694006184,-9.7761802932967,-0.001164541991947914,0.001977182840257724,0.0007587973683661928
6.71,-0.0199700417940828,-0.0009231730574374335,-9.782033886830224,8.980388437495388e-05,0.0017902188056217795,0.0002592977838296406
6.72,0.04053855425762308,0.028856061596007697,-9.782471409071702,7.191692489596802e-05,-0.0004603001160219891,0.0006818504393070787
6.73,-0.008230434796951886,0.032170314161047806,-9.793455764204976,0.0005766029673239799,0.0002146801398897113,-0.0006899863538676029
6.74,0.01896978381493337,0.0025494500537470593,-9.746805157309195,0.0002299298541660739,0.00013020121423786213,-0.0012334743187342012
6.75,-0.002200875427881827,0.023325080570439093,-9.788378094974473,-0.0013718123513241857,0.0007651533788097694,-0.002501888315051689
6.76,0.021382091264674302,0.03740024435953275,-9.826741455402896,0.00030541052696126,-0.00027808305775382444,0.0014082466068799102
6.7700000000000005,0.008692210213795269,-0.012881297868742758,-9.77773536231274,-0.0003934682091538757,0.0008594842142518959,-0.0002969138412377916
6.78,0.023826613419834986,-0.004409541691343509,-9.797091035226906,0.00021374815348614346,0.0009368365309200512,-0.00036255571632458014
6.79,0.014076140123861481,-0.02046409052029013,-9.779985645036852,0.001096554884498404,-0.0007936978771064831,0.0003945928425583791
6.8,-0.006354199550879727,0.019672964604523488,-9.81300761712823,0.0010226397227878529,0.0008600374917903349,0.0020164448767354104
6.8100000000000005,-0.0013453663303949308,-0.010022745131864363,-9.792613161319524,-0.0006634393173106604,-0.0011791492513485878,-0.0008943351084951194
6.82,0.03752680124691259,0.021919350138481727,-9.79624368553224,0.0007604425665484371,0.0006979229342693786,0.0002022566596474158
6.83,0.0003889344073431285,0.022706268996002952,-9.809929139028158,-0.00102295704910713,0.0009668672933290607,-0.0011247047776505403
6.84,0.010447637935325205,-0.007115267745704525,-9.790083776156463,0.0012589495823768998,0.003057438423139865,0.00046645114657155047
6.8500000000000005,0.02618215842477161,-0.008385029144112828,-9.767167039151383,0.0006831081356577432,-0.00029285976889555944,-0.0017102133210868163
6.86,0.05399173836464022,0.017080183340312968,-9.788331721206534,-0.0005027193630302223,-0.0008928952410987495,-0.0013470045764150157
6.87,0.03314270302864309,-0.017176907918808243,-9.75622853981423,0.0018223599419956494,0.000472862518025773,0.00047968758061398367
6.88,-0.005061334432146807,0.048361880745459156,-9.800992413165973,-0.00020902236519624955,2.712891755656365e-05,0.0010645506822393334
6.890000000000001,0.023234036926624242,-0.02619149063970927,-9.790915030216585,6.766288130478457e-05,0.0007306939380247328,-9.600429784501585e-05
6.9,-0.011593868676027809,-0.02383035129476457,-9.762539615826874,-0.00024215289073204718,-0.001206914165601862,-0.001877749062367128
6.91,-0.014551087532403603,-0.009701451452320584,-9.803682173596938,-0.00016156190106640184,0.0002564966919932327,-0.0011861300367087908
6.92,0.03279326185204487,0.025349980575631537,-9.761244098257475,6.552513496536712e-05,0.00025375256299050203,-0.0020560080060593794
6.93,-0.005729263881141299,0.03199201445534104,-9.80254969211434,-0.0008151246594795011,0.0006072638937354685,0.00048705872939574385
6.94,-0.005093758062208837,-0.008974548899477953,-9.799896217366086,-0.0010536749163997606,0.00035844805049973496,0.0011224072253604722
6.95,0.008184261963159816,-0.01177387257198248,-9.78202177090396,0.0008770729589908983,0.00010471421298606544,-0.0003679763133242924
6.96,-0.04218796782796565,0.009562918156856958,-9.808443594195612,-0.0005293444843345044,0.0006678197829096571,0.000295103973142888
6.97,-0.0033881178757709067,-0.007905217654686662,-9.767786555059274,0.0007294040061022005,0.000331873813121152,0.000918763950347442
6.98,0.0200920213303111,0.0016891591998527073,-9.80095468808719,0.00019459253295770016,0.0009846887161316866,0.000970822770366639
6.99,0.025657556007445834,0.04089419992862664,-9.787209893245667,-0.0007045266302248134,-0.001608144046870746,0.0016434928560145534
7.0,-0.02196637488717021,-0.009057921587599663,-9.77546567705566,0.0003566587307122617,-0.0015144858954961214,-0.000613819497218711
7.01,0.0011457390344668389,-0.012173892224725334,-9.804693662280314,0.0008718742923698285,-7.967683113289299e-05,-0.00041206141931912713
7.0200000000000005,0.011833569438366928,-0.025676560537722274,-9.787343136133906,0.0015008818603129668,-0.0008472871463838105,-0.0006981533577548339
7.03,0.011769321167540495,-0.003990433595666165,-9.807507223085883,0.00031138647504826757,0.0005904549320538822,0.0005963430343407316
7.04,0.030368071755582884,-0.02165560405951545,-9.783195377713334,0.0010112380445689469,0.00039857862068151683,0.0005893839389384092
7.05,0.02455506291047847,0.008189246850548514,-9.762026368171671,-0.00015920925931508324,0.00026269830323671423,0.00020753418005363443
7.0600000000000005,-0.012707917590635694,-0.010818272536251224,-9.795874676809309,0.00031509813581903607,0.0009725398075827608,0.0006551456819448311
7.07,0.07581393627243634,0.015156074644428589,-9.772749669241398,0.0001442170029001831,-0.0006091259849410398,0.00016767125806270954
7.08,0.023066993514203795,0.006576404781828483,-9.765661244940036,7.198221510425607e-05,0.00039318157981319836,0.002306525307140402
7.09,-0.027406080960977956,0.01053949631312487,-9.778085649615276,-0.00042377277854123543,0.0006222890191253595,0.0011684620672442981
7.1000000000000005,0.030372972494790006,-0.018113636126981667,-9.808291763123913,0.0001980019140993829,0.002537845119172165,-0.0002780392917314767
7.11,-0.010377572692573478,0.015446408381018295,-9.775918304052862,0.00042408922232004703,-0.000598805744892982,-0.0002515247351432931
7.12,-0.008996075552342468,0.043285527356606346,-9.780922571047816,0.0003489339103966579,0.0010463040623077298,0.00041909483402357417
7.13,0.01248411669329438,0.0008474605631465064,-9.768040126509586,0.001359114849334736,0.00010503468940732826,-0.0002321685298390054
7.140000000000001,0.017789884999716878,0.042797032703370146,-9.810927990370734,0.0028039851072793865,0.0005942376494420308,-0.0006194815459785476
7.15,-0.020911275653020298,-0.009801168014530858,-9.775582990831259,-0.0005942637622480688,-0.0007426799145313405,0.0010365693558567878
7.16,0.001438183083998991,0.03042055383600237,-9.794521161251735,-0.0002643772928932418,0.00032736247565648565,3.649132556173129e-05
7.17,0.03163816704224261,-0.01161522810827795,-9.762988939830555,0.0008314924079409347,-0.0006467440928840201,-0.0009755722861430154
7.18,0.037383063901711144,-0.006295717838229595,-9.776858765685041,0.00032429730718159426,0.000800959284699897,0.00043253231309764076
7.19,0.015354298268607462,0.0153341399389192,-9.760961262715131,-0.0007094537290973276,0.0008774848420913938,-0.0006438609270956342
7.2,0.029464230922510985,0.015282255384223339,-9.773388953984261,-0.00042153864478638336,-0.0007439535247220023,0.0014011583486520309
7.21,-0.01538536924294776,0.004181601922008498,-9.808680080493346,0.0007334215410273492,0.0008049933756788734,0.0013472114211424504
7.22,0.009636810787021288,0.02733617745173087,-9.786791078304336,0.002912649248238723,-0.0015092261039101555,-0.0006383765808771081
7.23,-0.040111803422043846,-0.01593599747552048,-9.77502823720462,-0.0005161750841745238,-0.0006508196223826929,-0.0009775832476037127
7.24,-0.0007822745816403291,0.02067687519715471,-9.810794193143817,-0.00019965306405536566,-0.0010166037152894048,0.00043504236753741317
7.25,0.017634371982603748,0.013638866438903385,-9.770851980787528,0.00015169832142861465,0.0006810286647636553,0.0006077284516382526
7.26,-0.003104196450006919,0.020595863764526913,-9.756518819753378,0.0007030068534266765,-0.00017340893682388234,0.0022211434026336674
7.2700000000000005,-0.03545388621845611,0.006034056654702505,-9.822776999770685,0.0003344311164820978,-0.0016624847526247948,-0.0009023757457662174
7.28,-0.007203919143240737,-0.010571488729238934,-9.787979024040553,-0.0016405029890278157,0.00021733462915130735,-2.1805224053333624e-05
7.29,0.01755082076062601,0.023099666916453626,-9.781369573138603,-0.0003684256978994578,0.0022109261124005145,0.0006489828740769109
7.3,0.02347255117521404,-0.016569977179292934,-9.765516821377984,0.0008260983614463345,-0.0007310734879421032,-0.0008991448913310122
7.3100000000000005,-0.05591645311970941,0.03553384207498586,-9.759706000114136,0.00013680549909695475,0.00037300713965222583,-0.001756311567114457
7.32,0.025001081617355172,0.04957931715178043,-9.822726369866173,-8.030702284953408e-05,0.00021407208287350482,-0.00011514916577112895
7.33,0.025588544450401398,0.007702122614771457,-9.781768288680343,-0.0007133904123466764,-0.00033953518192114,-7.685919357279602e-05
7.34,-0.013271398494472042,0.012896150075189662,-9.779693532039865,0.00019080002361004776,0.000804791582550568,0.0011808562049508713
7.3500000000000005,-0.0037919028356035046,0.0036261313661406416,-9.812940077380825,-0.00019434772352724982,-0.0002561561961153579,0.0005376556735343063
7.36,0.0020920236272075465,0.02421635351263071,-9.767033863553994,0.0007108449164108543,-0.00023420043325888556,0.0008903934769661724
7.37,0.025374032466067196,0.02420774692223359,-9.767180698930424,0.0010795853411559731,0.0014916864656586732,0.0018783209067198224
7.38,-0.002870935328916878,0.011790935594074832,-9.76491440546463,-0.0007664161386594389,0.0002138982093325112,0.00011127769661866015
7.390000000000001,-0.017591248452200274,-0.02270638882219581,-9.815462982644863,1.9264314674924122e-06,-0.00044926291961013616,-0.0013855620032310713
7.4,-0.02571080250163317,-0.016016124806447814,-9.797159373421206,0.0001926794460290038,-0.0005683556595479126,0.000185993480747625
7.41,0.04024611033870618,-0.0037494849985955465,-9.816977405736562,-0.0006940435416988534,-0.0008996583458443413,0.0003342983603768977
7.42,0.013323767929931129,0.001220725151667441,-9.802292638503818,0.000250921526806496,0.0007792819713209329,0.002285863766417625
7.43,-0.0017712634433669858,0.026341778595826693,-9.814847693047952,0.0003772895312108468,0.0006850817670641296,-0.0009775613288673254
7.44,-0.023315389775431267,0.014336712088316834,-9.798929409892056,-0.0011869074405363746,0.001782829446773334,-0.0008234797799333036
7.45,0.041044181724663,0.0019139359093718524,-9.788657451394123,-0.0009439440714686421,0.00016090107878344702,9.807586622611648e-06
7.46,0.025731037414883508,-0.028443204124668508,-9.779898279753581,-0.0008025065064432916,-0.00010497321871310003,0.0013293757176501043
7.47,0.0026876360320820837,0.025536133182176336,-9.799585544032661,-0.0007059936088317976,-0.0011936724843661715,0.0010425936208997924
7.48,0.013536442336008309,-0.0021792843110026838,-9.778392009726344,0.0005922969119380368,-0.00042051862064866163,-0.0014821670161269179
7.49,0.004977076414158267,0.010246207744042437,-9.751585226350223,-0.0006446233564385631,0.0001452955631507287,0.0012656720898838192
7.5,0.004280265505045757,0.013054988461409473,-9.740920641460484,-0.0009365819748696569,0.00011548011848852657,0.0007751446598948981
7.51,0.01779709041577755,-0.04368355380720414,-9.799975259849122,-0.0022812673401219207,0.0012337861679389,-0.0010824505722064374
7.5200000000000005,-0.014074982351593492,0.023439262235350842,-9.788526387130398,0.00043199549345693456,0.00044668314961074406,0.001184586391463845
7.53,0.03127035985083004,0.01723113589073775,-9.774505190378042,0.0006509243808935404,-0.002177290491729981,-0.0006847792471559914
7.54,-0.01446614453243166,0.0150978924077247,-9.759318201202131,0.0002382051293532801,5.020113880213069e-06,0.0005776107297567704
7.55,-0.01894193062426691,-0.0013428681687040287,-9.779561623024515,0.0008893665556697054,0.0008084517364296791,-0.00011427494255446522
7.5600000000000005,0.011960318564918925,0.03373174219546846,-9.772079851949545,-0.0017463370111204803,-0.0002554812488548173,0.0005163681481389552
7.57,0.018121837785452913,0.02135203091848671,-9.771364209157035,-0.0009904472525504775,0.0008312747301215763,0.0010083932972673045
7.58,0.010821382148781401,-0.0020964039097737617,-9.766843806936413,0.00022686697629584256,-0.002863779866312396,-0.0011780883627118034
7.59,-0.004861577989494614,0.003554427777411393,-9.809784672297344,0.0019861891585560816,-0.00034653779302837805,-0.001884143223128996
7.6000000000000005,0.024633513020213937,0.02965045772514166,-9.805360963812971,0.0013352473883102725,0.00021335559154367286,0.0012049404889577255
7.61,0.006921412546310782,-0.0046013152604495134,-9.765143473811408,0.0003769586752193653,0.0006585591362121688,0.0004630092477145166
7.62,0.03833942973660497,-0.004581869879868782,-9.848473501599711,0.000797488311921,0.0024774304485560986,0.001071006335959188
7.63,0.033056022036890786,0.005901898197393022,-9.785670930432092,-0.0014803393178455348,0.0006466615152789034,0.0012414807681032178
7.640000000000001,0.029274275854190623,-0.0022803554787145667,-9.799255514513078,0.001302700806536146,-0.00022660498305909952,0.0012649444451881277
7.65,0.002885831738904783,0.014781728112079225,-9.769070654869973,0.0010277423995512052,0.0027725174369697303,-0.0006500017362485115
7.66,0.04266307431265212,0.013067848796495921,-9.78954251511957,-0.0004074005764004253,-0.00010611904845995391,-0.00039022215003877526
7.67,0.027723817414586502,-0.014425163303233096,-9.758262235505512,-0.000790020749763603,-0.0025626755056737433,-0.0003346994737231341
7.68,0.014227538791337105,0.00042619463760256663,-9.806010502219626,0.00046935805969990443,-0.0002932218455059107,0.0020353811835291096
7.69,0.022538799017580928,-0.0006123302887393427,-9.78853564562899,0.00011337581271586258,0.0014910290551841355,0.00036142041272996836
7.7,-0.023423878492319063,-0.003693585488454116,-9.798019944666558,0.000926407309893258,0.00047924155393356226,0.0014687846319035628
7.71,0.018371256179756643,-0.00035292717754639626,-9.839627459722761,0.00015593935013240073,0.0006961207080887857,0.0004663329336500437
7.72,0.0016997585235226983,-0.024089668678298544,-9.807506898422144,-0.00018828545812731885,0.0006049823189246768,0.002334386246197682
7.73,0.030077691573361195,-0.028779674596300747,-9.780753127327658,-0.00017039694209544204,0.0006194648928532483,0.0013577789508694429
7.74,-0.0001444051731209258,-0.00900070483229359,-9.806236476729447,0.0012402532809442804,0.00021171641771936526,-0.002283388702957362
7.75,0.016390466243146277,0.013636099442300965,-9.821152996340118,0.0006167028186484663,-0.0020194742586230525,0.0015699372309412312
7.76,0.0330104826907111,-0.018725282775665538,-9.778877818034148,0.0002694738711932606,0.0011996740198719892,-0.0008021111381810511
7.7700000000000005,-0.013619343800320928,-0.0041812434519565905,-9.812226034327981,-0.0014525074733000543,0.0004607543841411672,6.639656004385803e-05
7.78,-0.0005748123671710723,0.0009805063479138036,-9.809636372550058,-0.00039154082615716575,0.00028466128073276377,0.00286743589203226
7.79,0.016288826733453783,0.013908641741416889,-9.732529409322046,0.0009345255473690578,0.001249498605863319,0.0009439368915533557
7.8,0.02857391632441149,0.02852840716130122,-9.822030308536572,0.001579462143852193,9.928327099255102e-06,-0.001954761307675294
7.8100000000000005,-0.029169310954475225,-0.0009398114285596474,-9.750913673985773,-8.858613300600979e-05,0.0010117357099965018,-0.0008698003951150736
7.82,0.059487256783826874,-0.008750714719148983,-9.798374455981913,-7.636595048933035e-05,-0.0004917697430023131,0.0016020292518431306
7.83,0.020877877912245477,0.001056820887182574,-9.790088687955087,0.0008494570154065638,0.000851540620643959,0.0007216013131209714
7.84,0.0226979824082092,0.05931035991687051,-9.76055853283329,6.275074744787305e-05,0.00039755628252750354,-0.0010851845805323176
7.8500000000000005,0.04738253095313519,-0.03188269856163019,-9.765154370449952,-0.0020864419787505676,0.0003500811303450241,0.0004239902562721444
7.86,-0.008997372041696377,0.038528969495083616,-9.759503469349635,0.0013092645684253776,0.0017713358160823677,0.0016699984849989468
7.87,0.02207629651904116,-0.00985786630616876,-9.796326364254643,-0.0008980235932938777,-0.0001522650349497693,0.0005803342958813796
7.88,0.001941858484738256,0.020246671351599275,-9.778572244671054,0.0026319046777421775,0.0016800992037139162,0.0012193971619983803
7.890000000000001,0.03840064668681295,0.03721639788071361,-9.803557152840284,-0.0002877879555492906,-0.0006831996311551246,0.0008889078833832396
7.9,0.019503930277711513,0.01426072363319857,-9.788550472747737,-0.00100066126423436,-3.843635098030264e-05,-1.477794900192263e-05
7.91,0.02883529267907333,0.01481946779901605,-9.79814115640035,0.001692912089122808,-0.00015469730295967753,-0.0023392496385726156
7.92,0.007157656993620419,-0.0019844215408539043,-9.801200343496937,0.0006044446476624683,-0.0004990218531039265,0.00014263102443774683
7.930000000000001,0.008293562521361642,-0.02093849028173119,-9.777172347065152,1.3295299157876355e-05,-7.370399581776827e-05,0.000890340581784704
7.94,0.038082367548049174,0.0060094242713049795,-9.767721444070723,-0.0014328648783527072,-0.00031701422495436027,0.0007840379131173813
7.95,0.013106591030241328,-0.015442097161648825,-9.746508697151866,-0.0005140847753443682,-0.0014088067092699718,0.0007685553432567358
7.96,-0.03844858595624661,0.005206148048793378,-9.8020210588001,0.0012230946304415391,0.00015500479235699367,-0.0018608455984695327
7.97,0.041633861226202606,0.009319367160009721,-9.735540464585203,0.0008059697466988162,-0.0014598878814196879,0.0004087992768481657
7.98,0.010720134412091931,-0.010216831626095033,-9.820855379757443,-0.0007874638247421597,-0.0009598392857669654,-0.0003419100170796902
7.99,0.03213290810368998,-0.011694606211267385,-9.795046172154883,-8.329755642725983e-05,-0.0004442082503864483,0.0006887032782151507
8.0,0.03456214077923901,0.02606731035597287,-9.798842692131316,-0.0003460693784588338,0.001180190871671822,0.00038117316564347946
8.01,0.0009198317287851965,-0.03012136841545927,-9.827760233812556,-0.0005975572065963081,-0.0006659398838322859,-0.0015474962990474387
8.02,0.02527396103283275,0.02248083298486587,-9.779505803880728,0.0003907331778668224,-0.0001545875472513581,-0.0022721955280635146
8.03,0.013744494970858325,-0.009123331642941587,-9.75728734605322,-0.0004357148727694001,-0.0007010340292549521,0.0016756775921706604
8.040000000000001,-0.02568042373837378,-0.004369872196820419,-9.783435972152267,-0.0016027786118933097,-0.0012413507997340537,0.0012099696431057
8.05,0.009991752235199144,0.004959022573722097,-9.797034985372244,0.0014567631574639631,-0.0005449829387256416,-0.0005320858228089109
8.06,0.02081814899095356,-0.019307847273641952,-9.789530108259687,0.0007162353965533129,-0.00212709979694531,-0.001761193684505556
8.07,0.018638020033681094,-0.0016506013189019368,-9.786554260433423,-0.00018073340085071187,0.001749890566129126,-0.0003357300881667396
8.08,0.01431028314899203,-0.030216414375364136,-9.81999600483435,0.00020093679173515463,0.001333789272564012,0.002206884733278146
8.09,0.012678575245181184,-0.007167641567909344,-9.797610435979562,-0.00047684847314831256,0.00018316327626657396,0.0019220552213428425
8.1,0.021380146284929197,-0.014776762129538566,-9.83491480983624,-0.0014221992751914283,0.0012275810705538218,-0.0009183155323612582
8.11,0.043140575673358064,0.029196869593785306,-9.762706610380592,0.00020247236710315672,-4.261904740027425e-05,-0.0008580116007012292
8.120000000000001,-0.012414951516415208,0.003451622350151998,-9.812018371691002,-0.0008831019276582751,0.00047641436425375453,0.0010955393281626821
8.13,0.008800809375200178,-0.0019602190927853194,-9.808211123216664,-2.9736203188503215e-05,0.0002701131587332164,0.0006711740662910473
8.14,0.020065722961491124,-0.00017485744452557916,-9.752195994726954,-0.0008716187730129599,0.000939692508412923,0.000919343097059747
8.15,0.011715599655214109,-0.04595791320013955,-9.822892530172657,0.00270362629875041,-0.00017610419055958225,-0.00035808180166812766
8.16,0.05191276532115966,-0.0021807398159583193,-9.78184983706539,0.0008689658715737455,0.0010191041689121385,-0.000435087153376712
8.17,0.01019458305583282,0.03332639063426042,-9.824788207841307,-0.0003031626769300489,0.0007411308382180404,-0.0007275842407346614
8.18,0.03658504174281514,0.030207435845772325,-9.786526815438755,-0.0003105339880150149,0.00028959276736843467,0.0010959386848222582
8.19,0.01826572261955344,-0.0024119359470005175,-9.820355016565442,-0.0005045986161795408,-0.001642384462030672,-0.0018165974675182109
8.2,0.021605726609566646,0.009931591159470073,-9.781302812147874,-0.0011594130667061334,-0.0011131677181999372,-5.461075861990903e-05
8.21,0.019645875578347113,-0.00708666201623775,-9.756784668616522,-0.001088880153597605,-0.0005027549598212041,-0.0006740858849820497
8.22,0.010162631563024608,0.015834216759557977,-9.79209250617467,-0.00034050786084799346,0.0015225043315231226,0.0007619475894305168
8.23,0.03100444992089605,0.007079856860454645,-9.788352380075679,0.00011612941527600388,-0.0002610262805808381,-0.0003332326566230212
8.24,0.03414714050968275,-0.029457407380226338,-9.792250342925412,0.0004277464699519495,0.0007841690733522902,-0.0008076175061006004
8.25,-0.0022529129060863858,0.012477596264978066,-9.780333955031155,0.00013648075561423147,-0.0018316195686630269,0.00031171378417059703
8.26,0.009764044763366085,-0.009280042779286825,-9.787130623414063,0.0008621492419586861,-8.00686268808754e-05,0.0019165269961401055
8.27,0.01646737219097982,0.001431311527216025,-9.76449906180926,-0.0007812384474360504,0.0004174404153032613,6.417525333404453e-05
8.28,0.022240292352286858,0.005380643418516863,-9.833570405611166,-2.976674434083227e-07,8.567783199525237e-05,0.0002071050300094717
8.290000000000001,0.0056338291689498835,0.0176019301026242,-9.7922372026793,0.0009479587434636998,0.0015777362362747445,9.774975549584262e-05
8.3,0.016065097382737405,0.0005084679951449546,-9.782000135485664,0.0009153160721716333,-0.0005017669462667825,0.0008659554527262331
8.31,0.038020169232899526,0.020734898321068954,-9.812561615516213,-0.0006619915238269903,0.0012906599360881323,0.0023106408773932393
8.32,-0.023160475573794637,0.013851158655756774,-9.76329293415472,-2.2083887971391795e-05,-0.0019925434908074084,-0.00044807293324482304
8.33,-0.023212982696664344,0.0008038492219615886,-9.739185631980488,0.0013318751342893034,0.0007530767870252449,0.00034891359867502954
8.34,0.004627234707979397,0.055517149589552915,-9.803122014579488,0.001108668355954839,0.000684453439248422,0.0013177251874511365
8.35,-0.0029380511938824176,-0.009059042434813844,-9.81223375029735,0.0010194236766469856,0.001721700452736959,0.0004587960839062543
8.36,-0.023826167959485813,0.0005751544409851247,-9.783752701905996,0.0010052594014939547,-0.00010712707308578538,-0.0005014608115590059
8.370000000000001,-0.004335592626140696,-0.004524383131686961,-9.757728494854565,0.0018067676404189734,0.00041620467632268805,0.000904880565862379
8.38,0.029434871404881283,-0.0001735247651745023,-9.778052491406067,0.00022374001441139015,-0.00038651565091996434,0.00011098289258240133
8.39,-0.022728472387347064,0.01039253799214604,-9.78789818640407,0.0015359940177677143,0.000755240074279424,-0.001611473159730459
8.4,0.0025166855258425625,0.005656199997748701,-9.789226835448215,-0.00011524445657615471,0.001982293792704712,-0.00011379686184995605
8.41,-0.016272786463122642,0.03859546234789753,-9.767633649397593,-0.0017004786917341806,0.0020930488854225436,0.0007823925098127927
8.42,0.0022440851419194994,-0.030211351859973933,-9.835775591360754,2.998714118719961e-05,-0.00017141773608206863,0.0011823519297917355
8.43,0.05009407667809652,0.0015267744615443325,-9.771390352188524,-0.0004419834002261926,0.0013482564245159885,0.000642195285724256
8.44,-0.00897457926274912,-0.0011474284504670593,-9.791776656345817,0.00034468192548734995,0.00034551480533559536,-7.496803671417812e-05
8.45,0.014829227494671013,0.006797369299612653,-9.805095318148279,0.0011456401202092658,-0.0006653428321018342,-0.0015219251268302092
8.46,-0.00865373752315877,0.003369066059093629,-9.821736250626223,0.0007144401228924747,0.0008312383280671478,0.0005802411525117667
8.47,-0.006461518731554873,0.001917236244088784,-9.778700008801454,0.0005077283696180388,-0.00012054037833754782,0.0008874827043855254
8.48,0.04006870432179047,-0.004529293962122112,-9.785927710126328,5.444187324545913e-05,-0.0002871135608151781,-0.0002118913122553999
8.49,-0.027347273984921025,0.01169627294006108,-9.804837150622625,0.002120639698775832,-0.0015349760820454327,0.0005997881042957989
8.5,0.003835302900457759,0.014517631021059442,-9.776296329646106,-0.0015791104276237171,9.176666167702678e-05,-0.00033362748515418773
8.51,-0.01907495394463546,0.021039002600271542,-9.787427485715122,-0.001985028296679878,0.000589037590433763,-0.0002800380621921959
8.52,0.03534357458891042,0.03423261005371997,-9.754527383740255,-0.001999206342561244,0.001039568090774252,0.001535006177988935
8.53,-0.01848839010134004,0.013045703639683874,-9.818198003140289,0.001590124342296572,0.0005589564406514711,0.0001460581385771155
8.540000000000001,0.03602901042431949,0.03387541902692917,-9.767088977434815,0.0014281566208957969,0.0018823835853400985,0.001233568702875625
8.55,0.001508016384634641,0.015884939463724417,-9.797694906712344,-0.000841537602229801,0.00040134485321492193,0.0005395161442914286
8.56,0.010275398161032845,0.0031558289829983583,-9.826616854955455,-0.0017096169689172292,0.0006693606596207742,0.002372991825979389
8.57,-0.006190113727270586,0.0504171889944887,-9.788383832860877,0.0007399361658007915,0.0016734130814417564,0.0002829147301287051
8.58,0.013204548958862037,0.0048265868178450945,-9.794860479819082,2.6781676016178515e-05,0.0005812713900809755,-0.0007158266479844326
8.59,0.01072214400148048,-0.0031401927195513794,-9.832308994277941,-0.0008637751872343886,0.0014663045571693659,0.0014723423428665183
8.6,0.025724550704750118,0.03725739270433844,-9.809933561086169,-0.0008911063155873503,0.0011679988045538645,1.3040024393979089e-05
8.61,0.0017430190805432736,0.03499908491932885,-9.802078062052994,0.00043980857449043057,0.0006602186394350635,0.0010943504681243184
8.620000000000001,0.01775434182818992,0.09153841481220262,-9.774004603121131,0.00018271820186318888,0.001610161995301936,0.00040941283975992474
8.63,0.011376506470899116,0.02263420879597942,-9.77111506256859,0.0007241842724695326,-0.0006332625915372465,0.002258659010704834
8.64,-0.003245258229086617,-0.029728862437270017,-9.774771730067199,0.0005698249232049664,0.0009129974253450992,-0.0015081858112115415
8.65,0.024877148085873775,-0.0009501933163712749,-9.753746081002081,-0.000722702023079101,0.0014378836879187307,0.0003868911182926047
8.66,0.038894718762122506,0.020490357281506607,-9.792222428907378,-0.001813779734828926,0.0012382899289838192,-0.00044378280435272347
8.67,-0.03181852386808342,0.0015129055757857114,-9.823373827733997,0.001511316985876712,0.00011216432139630035,0.00030470668602052995
8.68,-0.03714184240316226,0.017943171507605566,-9.763203854915284,0.0012789545785916484,-0.0006974929708546624,-0.0008928468078339396
8.69,-0.029011927232568097,-0.00013091135613394183,-9.786999857780662,-9.649842039810733e-05,0.0010271727996212221,-0.0012308772526134907
8.700000000000001,0.004151907234710262,-0.02257025870680639,-9.760029260872207,-0.0015680345998890966,0.0010237209270437923,-0.0005029783125670037
8.71,-0.0170177953787138,-0.03398395845317514,-9.814138953077482,-0.0002922260129202831,-0.001656810401940166,-0.000578979314351982
8.72,0.01962684534245661,-0.0003440760685690467,-9.802054936524062,9.243270336884937e-05,0.0011303778576228923,-0.0006712301662346388
8.73,0.020552984588790853,0.011652560810545609,-9.832796431174533,0.0017573761202324966,-0.00048455602417980066,-0.0005830918015851746
8.74,0.020351349358275084,0.02862465977590604,-9.78911363542852,0.0016373575518978023,0.00041146015236391716,-0.0004520247290115766
8.75,0.0053017038685029575,0.042877495783879525,-9.800846377281234,-5.5133131180593435e-05,0.0015530735775420594,0.0015662028196256818
8.76,0.0066867876312474385,0.011619599166807111,-9.78568119353882,-0.0007167931792702559,0.0001575661899208918,0.00019015682766757307
8.77,0.004554313871622052,0.006784483422072295,-9.755271078116522,-0.0008862401105165976,0.0001443149473500057,0.0001053228604517005
8.78,0.02615315291076868,0.0035056439003823747,-9.803928802768942,0.0012402094789367357,0.001407425028311201,-0.00022920939835900807
8.790000000000001,-0.004620084922976586,0.024004341676963793,-9.818516444722867,-0.00011395314386081168,0.0008642923020556356,-0.0004851884489270115
8.8,0.05806379494646294,0.0043643063183905805,-9.814220962506337,0.0006886401517374027,0.00011209351263078527,-0.0008693985777386207
8.81,0.013639517838268018,-0.01101411992772467,-9.795029739235414,-0.0008568367128796465,0.0016470586960311022,-5.6421479143298585e-05
8.82,-0.020215435875808055,0.000227944006416801,-9.829102755807563,0.0017403540938983112,-0.0003136362607149101,0.0003912052011314934
8.83,-0.0019973218323781645,-0.011546137326092297,-9.796696367263738,0.0024926767230182413,-0.0008573867446632792,-0.0017978144998997765
8.84,-0.005283986687273834,0.005679282675419486,-9.76888989490022,0.0013865901312872333,-0.0006268091053930737,7.929363589376622e-05
8.85,0.01721224267444424,0.03098523973483806,-9.796620579810556,-0.00048591821045158493,0.0004681627809553161,-0.0008505362071857421
